accx,accy,accz,gryx,gryy,gryz,number,activity
0.17000088,0.09857719,0.41613707,-0.79632884,0.33540803,0.12760691,8.0,1
0.1550384,-0.04608716,0.48597568,-0.38915804,0.13500108,0.12616602,8.0,1
0.095196515,-0.09621718,0.44429398,0.1348771,-0.08299259,0.20444009,8.0,1
0.105586626,-0.13224435,0.37596232,0.7730418,-0.3824434,0.1883486,8.0,1
0.07474248,-0.06264475,0.34032422,1.4862332,-0.5949719,-0.071901985,8.0,1
0.063838854,0.06512266,0.4072042,1.7968904,-0.68673456,0.015418253,8.0,1
0.18735379,0.18629661,0.5635225,2.0997307,-0.20984142,0.086105436,8.0,1
0.23492908,0.378902,0.6204527,2.0773258,-0.30213508,0.080159836,8.0,1
0.2145501,0.56303865,0.60532033,2.4258597,-0.7393134,-0.08421531,8.0,1
0.34648475,0.82287514,0.513981,2.2145052,-1.3411108,-0.18041326,8.0,1
0.487424,0.9663121,0.59463584,2.6524951,-0.5789591,-0.28140283,8.0,1
0.5384731,1.1076347,0.5559629,2.6621904,-0.08841169,0.104245454,8.0,1
0.614362,1.1870694,0.648755,1.9104229,-1.1957544,0.14839232,8.0,1
0.56698877,1.2724228,0.7391851,1.4344774,-0.8160432,-0.09152038,8.0,1
0.4839993,1.1617243,0.7505039,1.0620865,-0.19296007,-0.21322213,8.0,1
0.43810096,1.0687823,0.6572778,0.32344386,0.15140274,-0.031636875,8.0,1
0.5048877,0.9526698,0.62152076,-0.20421855,0.23144186,0.072193004,8.0,1
0.4817505,0.92391145,0.46114412,-0.3024746,-0.06766129,-0.058978368,8.0,1
0.40083653,0.92677814,0.20718773,-0.25496498,0.05656607,0.04016933,8.0,1
0.48174095,0.96071786,0.38024127,-0.7344914,-0.2320069,0.13153015,8.0,1
0.4490722,1.0068548,0.5999464,-1.6254755,0.034184244,0.059534434,8.0,1
0.4251217,1.0829303,0.8124091,-2.0037503,0.433304,0.038389683,8.0,1
0.51277024,1.2016425,0.6606101,-2.260788,0.5796181,0.055523064,8.0,1
0.5522653,1.2564429,0.67098606,-2.3118408,1.0425236,0.09671108,8.0,1
0.56710434,1.234114,0.6966572,-3.185449,0.39509276,0.31141084,8.0,1
0.5397909,1.2179469,0.7585274,-3.0783494,0.1331065,0.20208614,8.0,1
0.3932333,1.1038078,0.51407933,-2.6749346,0.3531423,0.065356985,8.0,1
0.3562501,0.8203124,0.42209134,-2.1159427,0.5967194,0.060652878,8.0,1
0.35231405,0.4963262,0.3686388,-1.9745058,0.35334724,0.1667545,8.0,1
0.2859712,0.21663678,0.37012786,-1.3707341,0.62570536,0.05436648,8.0,1
0.15638718,0.008253973,0.21644819,-0.2843192,0.30702725,-0.04503221,8.0,1
0.124658704,-0.12814449,-0.038801543,0.9450009,-0.22921833,-0.023119092,8.0,1
0.17306079,-0.1380074,-0.006700522,1.6095905,-0.39221606,-0.043593228,8.0,1
0.13687882,0.0010187536,0.26272985,1.8170563,-0.14273107,-0.123632185,8.0,1
0.12451619,0.1951115,0.46241564,2.5319946,0.21231043,-0.23087473,8.0,1
0.15026544,0.44968528,0.38218477,2.9205225,-0.036667816,-0.18295707,8.0,1
0.2292505,0.6938109,0.5400375,2.7392247,-0.29614055,-0.11361173,8.0,1
0.30508524,0.9571873,0.6745831,2.6989021,-0.61596054,-0.03916084,8.0,1
0.40416393,1.1191871,0.6088505,2.5977173,-1.2232531,0.062450785,8.0,1
0.49475664,1.2639123,0.5526806,2.4347496,-1.5040982,-0.17252691,8.0,1
0.51942647,1.3792264,0.61508125,2.2402163,-0.9400325,-0.2799041,8.0,1
0.59238267,1.362037,0.7589781,1.5294935,-0.78670704,-0.21027286,8.0,1
0.5587645,1.1983588,0.77337396,0.41827735,-1.1813443,-0.12686887,8.0,1
0.5247866,1.006118,0.71746695,-0.13290428,-0.64234287,-0.059502743,8.0,1
0.4797946,0.9308914,0.52498084,-0.15879573,0.15534139,0.14481351,8.0,1
0.523984,0.90860355,0.35608009,-0.64998794,-0.08577966,0.3419351,8.0,1
0.5591459,0.9595168,0.40018344,-0.6586008,0.4999463,0.53140193,8.0,1
0.62642235,1.0249325,0.5356041,-1.6291041,0.59520316,0.8004066,8.0,1
0.7126607,1.1096393,0.7694441,-2.215507,0.7509739,1.0274119,8.0,1
0.719718,1.2529038,0.6525223,-2.4525197,1.1524256,0.8891082,8.0,1
0.41553864,-1.0203638,0.590844,-0.95336866,0.78077304,1.4058627,9.0,1
0.41171843,-1.0834377,0.94287884,-0.81681406,0.9350427,1.4928674,9.0,1
0.7722622,-0.9489868,0.88463366,-0.7411541,0.6860889,1.5586139,9.0,1
0.60294235,-0.8499157,0.73475564,-0.78819066,0.39477602,1.6210444,9.0,1
0.5354575,-0.84102935,0.6333114,-0.9141162,0.63022095,1.3041624,9.0,1
0.42640442,-0.7878083,0.29681975,-0.23441517,0.18055432,0.70738196,9.0,1
0.08023066,-0.69342303,0.4557631,-0.08052949,0.16353735,1.1573453,9.0,1
0.46133104,-0.7069646,0.37350887,-1.056727,0.13217378,0.7016049,9.0,1
0.057008814,-0.6823494,0.47592515,-0.04235914,0.24403194,0.57890826,9.0,1
-0.13265984,-0.6921714,0.27379707,-0.47024405,0.18776251,0.7608065,9.0,1
0.03397085,-0.6966006,0.17676583,-0.20994565,0.0718552,0.40882593,9.0,1
-0.2699922,-0.6439694,0.17281732,0.122539565,-0.24326399,-0.63114595,9.0,1
-0.20810115,-0.49269128,0.26220626,0.49710467,-0.16240288,-0.6392617,9.0,1
-0.27477866,-0.58250827,0.17765455,0.6125931,-0.53407073,-0.6224542,9.0,1
-0.116446316,-0.64094985,0.19887677,0.22235495,-0.206263,-0.9746791,9.0,1
0.0032618605,-0.6661617,0.24749438,0.3931354,-1.2162676,-0.71952945,9.0,1
0.014879485,-0.6029701,0.63999116,1.1432954,-1.0826102,-1.4338055,9.0,1
0.33154425,-0.6867662,-0.043440394,-0.20011945,-1.0542487,-1.7769197,9.0,1
0.14717923,-0.69540256,0.5607489,0.15793484,-1.2803386,-2.7472878,9.0,1
0.4767545,-0.62263036,0.6690482,2.1168923,-1.5969763,-1.859788,9.0,1
0.85798514,-0.8048569,0.70236015,1.3722477,-1.8729303,-0.9336988,9.0,1
0.65996075,-1.0486106,0.3722792,0.3682121,-2.0423493,-0.7518529,9.0,1
0.6442845,-0.99335814,0.6263164,3.603651,-1.1495786,-0.034103733,9.0,1
0.98610944,-0.65409976,0.24848846,-0.62770766,-0.27871162,-0.07733554,9.0,1
0.79931575,-0.6844946,0.7126629,-1.5067253,-0.028588492,-0.33377677,9.0,1
0.67104685,-0.6203549,1.021739,0.5207015,-0.0628144,0.19404571,9.0,1
0.87172496,-0.5532464,0.3510053,0.10049606,-0.10946705,0.109117985,9.0,1
0.5036117,-0.65513694,0.4233159,0.22300072,0.05715953,0.25961772,9.0,1
0.7029788,-0.6417303,0.6381879,-0.22949335,0.25246188,0.08656833,9.0,1
0.7510323,-0.61847496,0.57560724,-0.09843657,0.3211406,0.14199999,9.0,1
0.6631297,-0.56234914,0.6052054,0.5742308,0.33112386,0.13531537,9.0,1
0.6362447,-0.6029826,0.4704032,0.6084392,0.30707324,0.51153857,9.0,1
0.6794428,-0.7267302,0.65242666,0.10513864,0.3666762,0.43111378,9.0,1
0.6636478,-0.8015922,0.73399234,-0.7080452,1.0554705,1.0381218,9.0,1
0.96290576,-0.7833397,0.83522874,-0.5238606,1.3218949,1.6281304,9.0,1
0.78844035,-0.7845665,0.8437713,-0.06620034,1.3531537,1.8949738,9.0,1
1.0538204,-0.75736356,0.48054022,-0.9195616,1.3388944,1.7357473,9.0,1
0.6107522,-0.8889729,0.6257524,-0.95687675,1.0518401,1.7552427,9.0,1
0.49618968,-0.84831256,0.27512634,-1.2929922,0.48384017,1.4556046,9.0,1
0.5762192,-0.71340984,0.2988088,-0.6563485,-0.33108896,1.0654013,9.0,1
0.24344626,-0.64411974,0.5090006,0.73122317,-0.29152235,1.1255977,9.0,1
0.12509033,-0.79702014,0.40133333,-0.27946213,-0.56489325,1.0435324,9.0,1
-0.05166304,-0.79202014,-0.088244535,-0.4299095,-0.23116885,0.56758106,9.0,1
-0.05491341,-0.63661635,0.29904154,0.3882834,-0.38423422,-0.15732397,9.0,1
0.13436356,-0.36593455,0.03580768,0.24897122,-0.25933847,-0.1891937,9.0,1
-0.3328055,-0.48069444,0.5385939,0.29921925,-0.26549947,-0.4905248,9.0,1
-0.31382334,-0.5986606,0.48154768,0.3891037,-0.26352727,-0.80180424,9.0,1
-0.14104912,-0.6254842,0.3501788,0.42531928,-0.2602286,-1.0187486,9.0,1
0.02708225,-0.6193168,0.32180947,-0.48113492,-0.5388704,-1.4014994,9.0,1
0.07620169,-0.5780264,0.4415358,-0.3637615,-0.5096187,-1.5245451,9.0,1
-1.3832864,0.43986464,-0.121697284,0.79670787,-1.3201495,-1.8976616,11.0,1
-1.2897661,0.43734694,-0.3044285,0.9888861,-1.8800337,-1.826871,11.0,1
-1.1195843,0.36175045,-0.34523624,1.3497504,-2.026083,-1.7621891,11.0,1
-1.1506888,0.16949415,-0.53754234,2.172708,-2.2183833,-1.7154666,11.0,1
-0.9883734,0.016540103,-0.6445201,2.8087234,-2.0721421,-2.1365273,11.0,1
-0.7750433,0.060986064,-0.617004,2.9594326,-0.50450486,-2.5110576,11.0,1
-0.63034064,0.34554267,-0.384572,3.1315222,-0.07506661,-2.4398305,11.0,1
-0.55549693,0.628613,0.03193482,2.5008998,0.7931998,-1.6697041,11.0,1
-0.35170534,0.9647915,0.7445307,0.9464746,1.1415675,-0.27527332,11.0,1
-0.40808782,1.0688655,1.461507,-1.1455643,0.7566002,0.31763247,11.0,1
-0.5764567,0.91268885,1.5303938,-2.6206818,-0.13266248,0.7417475,11.0,1
-0.64692295,0.74931425,0.915038,-3.5967395,0.29649654,0.8897514,11.0,1
-0.63305086,0.6061946,0.3175104,-3.8817868,0.40849432,1.5241786,11.0,1
-0.62410706,0.6086808,-0.04239748,-3.7532432,0.06736971,2.4007702,11.0,1
-0.6499903,0.6586592,-0.37856063,-3.3033848,0.17130406,2.8113415,11.0,1
-0.9518628,0.41547728,-0.57194126,-2.4743533,0.57311374,2.8104165,11.0,1
-0.96281576,0.38784918,-0.94558036,-0.98029906,0.27680922,2.6756246,11.0,1
-0.8572525,0.6386389,-0.7430539,-0.056007616,0.7477165,2.4360433,11.0,1
-0.9250889,1.011012,-0.59285223,0.9090198,0.7874402,3.0606618,11.0,1
-1.3229305,1.2169278,-0.419648,1.5672882,0.78058106,3.134594,11.0,1
-1.6731304,1.4221587,-0.43248478,2.6808956,0.9447816,2.269661,11.0,1
-2.1281943,0.8286993,0.98634404,2.0398884,-1.6868782,0.6452831,11.0,1
-2.3895051,0.40190887,2.2652948,-2.13555,0.7211177,-2.3032062,11.0,1
-1.666894,0.8115424,0.7993263,-0.9899333,-0.8322079,-2.289261,11.0,1
-1.0406982,1.2492139,-0.008048348,-0.1590344,-1.740006,-2.1040468,11.0,1
-1.2984235,1.0341027,-0.0393511,-0.77089447,-0.26197392,-2.6105587,11.0,1
-1.2467134,1.0149097,-0.19728988,-0.060667645,-0.79325217,-2.5459118,11.0,1
-1.0076467,0.89421904,-0.31100392,0.60166734,-1.7903588,-1.6816771,11.0,1
-1.0028889,0.5808438,-0.35245043,1.2237725,-2.1316578,-1.7484708,11.0,1
-1.176957,0.27945504,-0.5935015,1.6950637,-1.1890404,-2.4955416,11.0,1
-1.0953424,0.207787,-0.6109476,2.0889149,-0.6669252,-2.8260198,11.0,1
-0.80079633,0.26952296,-0.5108891,2.3953598,-0.18577285,-2.8868968,11.0,1
-0.62046885,0.36243233,-0.22322962,2.415396,0.7260744,-2.6154456,11.0,1
-0.49633235,0.6145475,0.20050481,2.035403,1.2846321,-1.2449783,11.0,1
-0.37639913,0.7014005,0.8791441,0.8618261,0.6759835,0.14009757,11.0,1
-0.51064587,0.61387527,1.3678026,-1.0340902,0.03070034,0.4707502,11.0,1
-0.69559604,0.5615715,1.352294,-2.6849797,0.2611536,0.4542743,11.0,1
-0.6558561,0.49450892,0.9285777,-3.4419289,-0.10292207,0.9620953,11.0,1
-0.49008736,0.48741826,0.30737814,-4.065203,0.13864896,1.4238046,11.0,1
-0.41786957,0.53703094,-0.12128929,-3.7809591,0.20498893,2.5159793,11.0,1
-0.45848578,0.6778761,-0.5829421,-2.6968653,-0.3358188,3.5538568,11.0,1
-0.9006585,0.6930065,-0.8263788,-0.9607688,-1.4978241,4.48115,11.0,1
-1.3510078,0.60262245,-0.804129,0.20064305,0.5222025,2.6131418,11.0,1
-1.2984867,0.7642426,-0.651492,0.9334893,0.67394143,2.9765544,11.0,1
-1.0648806,1.0195967,-0.27201673,1.7349097,-0.24839526,2.4515243,11.0,1
-1.3422048,1.0589123,-0.4517696,2.8076937,0.5460786,1.7244202,11.0,1
-1.4382908,1.1866583,0.36933336,2.327606,1.0647382,1.1952189,11.0,1
-1.4197166,1.0928496,0.24116507,-0.1918815,-1.8404497,0.5409648,11.0,1
-1.3954729,0.8730744,1.1481922,-2.2193084,1.8992673,-2.0807116,11.0,1
-1.4725115,0.7702061,0.9985899,-2.0655098,0.029077185,-2.19065,11.0,1
-0.8666541,0.48056418,-0.05298943,0.19947368,0.011309734,0.1314931,9.0,1
-0.89233625,0.47749963,-0.04624161,0.006440265,0.18798941,0.09583603,9.0,1
-0.92913324,0.524243,-0.015753847,-0.255778,0.26895523,-0.044191737,9.0,1
-0.79042846,0.47029495,-0.07982364,-0.7113438,0.4035201,-0.12007865,9.0,1
-0.9203168,0.45913702,-0.04055682,-0.34869933,0.077422805,-0.02300344,9.0,1
-0.90365696,0.44666132,-0.059946977,-0.20123646,-0.17379989,-0.2417281,9.0,1
-0.8367351,0.45055333,-0.113859616,0.05148721,0.08471828,0.032620203,9.0,1
-0.9302891,0.44552454,-0.012879847,0.097424276,-0.06328564,0.0021293017,9.0,1
-0.88633454,0.43138725,-0.02498206,-0.037734017,0.06127851,-0.07351327,9.0,1
-0.87304085,0.45990604,-0.024399787,-0.052499503,-0.20139354,-0.122522116,9.0,1
-0.8948023,0.52986175,0.10241629,0.08208284,-0.20947441,-0.23975588,9.0,1
-0.97712356,0.6103405,0.25657415,1.1117399,-0.8972214,0.071418874,9.0,1
-0.87678635,0.6214275,0.8084731,-0.5234417,-1.0392737,0.42099085,9.0,1
-1.0837986,0.6275433,0.6922346,-1.555612,-1.2292703,0.5166,9.0,1
-1.2417767,0.61183536,0.5491494,-2.1649938,-1.1466639,0.1436057,9.0,1
-1.2097863,0.5834746,0.42449674,-2.367923,-1.3431705,-0.17268288,9.0,1
-1.1347376,0.50099915,0.47944465,-1.9091109,-1.5573747,-0.36514032,9.0,1
-1.1365955,0.41908392,0.62263036,-1.6115673,-1.691067,-0.51769954,9.0,1
-0.99523336,0.3799799,0.3700382,-1.509989,-1.4329327,-0.8089427,9.0,1
-0.791005,0.23091404,0.61459637,-1.103275,-1.463319,-0.79145443,9.0,1
-0.68753815,0.13442197,0.54653686,-1.6840333,-1.2390965,-0.78065085,9.0,1
-0.56412566,-0.0011664551,0.6086099,-1.984579,-0.8130267,-0.8007047,9.0,1
-0.48990345,-0.14203458,0.73847616,-1.2115552,-0.49640656,-0.8780926,9.0,1
-0.31535563,-0.1855535,0.761835,-0.70893526,-1.0260617,-0.6407453,9.0,1
-0.314419,-0.2677541,0.6068545,-0.33653438,-1.0072819,-0.56704,9.0,1
-0.16594402,-0.30067533,0.54921454,-0.1773429,-1.3426644,-0.39903462,9.0,1
0.06754139,-0.3012423,0.47332412,-0.50984555,-0.54159313,-0.27504644,9.0,1
0.02420059,-0.24234207,0.06253559,0.049898963,0.07070329,-0.14114478,9.0,1
0.036590107,-0.19316228,0.022450907,0.9608561,0.69881237,0.043458696,9.0,1
-0.17843889,-0.047658976,0.15000345,1.9097567,0.93837625,0.5828527,9.0,1
-0.5252074,0.07813046,0.48895916,1.4777005,1.8878528,0.31281537,9.0,1
-0.72482157,0.17468765,0.45315343,1.9450648,2.126893,0.34320155,9.0,1
-0.9435357,0.23877087,0.96046656,0.9595471,2.4149249,0.71108204,9.0,1
-1.1308839,0.40701813,0.5915584,1.7521535,2.6324627,1.2860807,9.0,1
-1.2462739,0.52638924,1.2517394,0.83877033,2.0387888,1.1728089,9.0,1
-1.2604457,0.6550086,0.697565,1.385931,2.0815845,1.2917356,9.0,1
-1.4032732,0.5674708,0.8287692,0.5515764,1.7035636,0.9591631,9.0,1
-1.1667155,0.45939174,0.6451244,1.1782544,1.0166718,0.1311615,9.0,1
-0.85715485,0.47904333,0.6513225,0.2539454,0.97152007,-0.061208695,9.0,1
-1.0253102,0.4210941,0.28287685,0.33101913,-0.13447762,0.29215068,9.0,1
-0.99784386,0.41008076,0.30321032,0.56433475,0.14943509,0.22938862,9.0,1
-0.93667966,0.39992553,0.42073497,-0.5968502,0.26649433,0.092886426,9.0,1
-1.0356952,0.52194846,0.6814626,1.0348057,-0.9463175,0.04436627,9.0,1
-0.96649903,0.61165726,1.382981,-0.33049554,-1.6148659,-0.11477285,9.0,1
-1.1333135,0.7091626,0.89063054,-1.5487528,-1.9024613,-0.009651671,9.0,1
-1.1274899,0.72396255,0.7280959,-1.954507,-1.9814898,-0.06934193,9.0,1
-1.1675937,0.6389243,0.6609424,-2.434368,-1.593119,-0.39393827,9.0,1
-1.0714521,0.4987189,0.5780197,-1.973723,-1.6503135,-0.64432317,9.0,1
-0.9825182,0.3898421,0.87686956,-1.7674251,-1.4965152,-0.637115,9.0,1
-1.08716,0.30047804,0.6399615,-2.534829,-1.5948296,-0.8828748,9.0,1
0.95848227,0.037646428,1.0389054,-1.4873871,2.2769392,0.49850094,10.0,1
0.99402654,-0.0062239664,0.9554694,-1.3970662,2.4325004,1.0048035,10.0,1
1.2402012,-0.060005397,1.1016948,-0.3766944,2.374538,1.2780871,10.0,1
1.2293718,-0.12956175,0.8840024,-1.730267,2.1132622,1.2712629,10.0,1
1.0672748,-0.2344747,0.6675638,-1.0197086,1.6804204,1.4768802,10.0,1
0.89437324,-0.27567127,0.962721,-0.2934073,0.96345663,0.8382467,10.0,1
0.73013383,-0.18607736,0.5300628,0.27520353,0.12107349,0.3963119,10.0,1
0.16891953,-0.11628351,-0.092866294,-0.03267256,-0.49188614,0.0076270886,10.0,1
-0.08605527,-0.19168362,0.04773847,0.0068416907,-0.95670223,-0.24975662,10.0,1
-0.25428626,-0.22747788,0.13657197,-0.30579913,-1.4406297,-0.36274922,10.0,1
-0.16235082,-0.2624964,0.44808823,0.09630727,-1.6808219,-0.46609017,10.0,1
-0.0915514,-0.29090223,0.46209145,0.47837728,-1.805229,-0.48612654,10.0,1
0.18343511,-0.33270305,0.5236981,0.34836772,-1.8583219,-0.61477476,10.0,1
0.35447782,-0.40097228,0.48326197,-0.8216835,-2.1366146,-0.96460855,10.0,1
0.413855,-0.41560754,0.6625905,-0.34389967,-2.2445982,-1.2911596,10.0,1
0.5727639,-0.3954024,1.0988352,-0.61617106,-2.0913234,-1.4628651,10.0,1
0.5454987,-0.3625607,0.6331179,0.6047391,-1.4911919,-1.4788,10.0,1
0.65659636,-0.3921003,0.48208976,0.99181825,-1.106818,-1.200455,10.0,1
0.9626549,-0.45289388,0.51325935,0.902056,-0.9150936,-0.7771951,10.0,1
1.2538636,-0.4406806,0.55166334,0.75127697,-1.1013726,-0.5486268,10.0,1
1.2256281,-0.31698465,0.7035917,1.2180653,-0.478674,-0.12878785,10.0,1
1.0639153,-0.23052332,0.6480874,-0.09403834,-0.29672343,0.061470497,10.0,1
1.0602694,-0.20274675,0.41866732,0.4870341,0.0010646508,0.2730742,10.0,1
1.1773746,-0.152367,0.53814566,0.09005899,-0.02713987,0.21142918,10.0,1
1.0795791,-0.13488166,0.5639513,0.20348793,0.5438271,0.21717131,10.0,1
1.006259,-0.08848012,0.29004988,0.38940042,0.8363967,0.19559905,10.0,1
0.9062753,-0.06326343,0.5869673,0.05333726,1.4813831,0.2950828,10.0,1
0.9412373,-0.107899964,0.5082545,0.5874778,2.1476974,0.46354198,10.0,1
1.0235566,-0.13972847,0.847397,-0.41196752,2.542962,0.54124403,10.0,1
1.1526568,-0.18571535,0.8990094,-0.92415184,2.9266205,0.68575734,10.0,1
1.268112,-0.1539395,0.97080386,-0.5065644,2.8350081,0.656907,10.0,1
1.2854143,-0.1537499,0.9846595,-1.0417696,2.6463904,0.62336177,10.0,1
1.1758778,-0.15865418,0.75385845,-0.74796087,2.3659508,0.7536506,10.0,1
0.9656045,-0.22724614,0.758757,0.23401375,1.8438182,0.4735253,10.0,1
0.8252746,-0.24656448,0.70179605,-1.1694753,1.4395651,0.86910415,10.0,1
0.6512803,-0.21692137,0.62209594,-0.49326494,0.31030208,0.20394172,10.0,1
0.36067405,-0.2201076,0.41161308,-0.1891937,-0.31150636,-0.07702138,10.0,1
0.050308883,-0.12599246,-0.025381412,0.059952058,-1.1020184,-0.20217894,10.0,1
-0.3425844,-0.19078435,0.044076297,0.13203415,-1.4736339,-0.4320737,10.0,1
-0.17581388,-0.2745182,0.127474,-0.56524235,-2.0042663,-0.7491128,10.0,1
-0.11676618,-0.29697677,0.20308001,-0.11465068,-1.9783657,-1.0222917,10.0,1
0.037787206,-0.32125112,0.6430232,0.15392059,-2.5220182,-1.4042046,10.0,1
0.26661736,-0.33472568,0.44121784,1.0154151,-2.1696362,-1.461242,10.0,1
0.56277716,-0.33623308,0.5765199,0.90600044,-2.4971821,-1.1339229,10.0,1
0.7921187,-0.34256333,0.66648924,-0.70752156,-2.809666,-1.0874797,10.0,1
1.0162189,-0.3377596,0.910196,0.5883854,-1.7120633,-0.740037,10.0,1
0.9924598,-0.3342497,0.9786894,0.6442883,-1.2441928,-0.974906,10.0,1
0.97016305,-0.3527799,0.26759514,1.1420387,-0.69542646,-0.5388006,10.0,1
1.2662569,-0.34957927,0.6821301,0.5257979,-0.5992588,-0.25844836,10.0,1
1.1091341,-0.24266863,0.7516137,0.20359266,-0.39409533,-0.19444713,10.0,1
1.5237728,0.70236534,-0.7452986,-0.33089763,2.3307803,-3.0277433,10.0,1
1.2777219,0.34936345,-0.673712,-0.17866123,-0.4148447,-0.7727979,10.0,1
1.213887,0.35120496,0.01300776,0.66770226,0.81467193,0.4755931,10.0,1
0.9038388,0.6051733,0.53928435,-1.78566,-2.200615,0.8618676,10.0,1
0.9835494,0.5129547,0.6808518,-1.7296813,1.0771405,0.38137063,10.0,1
1.2569901,0.6024015,0.4815019,-1.3051434,1.197874,0.791696,10.0,1
1.474216,0.6541413,0.5964749,-1.4801966,1.9846975,1.0787168,10.0,1
1.4391147,0.6881125,0.50261295,-2.4579673,1.4670237,1.4308528,10.0,1
1.3616103,0.6352791,0.36643836,-1.7273791,1.9571139,1.5699861,10.0,1
1.2789085,0.56869626,0.52842164,-1.1627992,2.5890846,1.2880927,10.0,1
1.2071698,0.47636032,0.6212523,-1.693092,2.3907185,1.1836509,10.0,1
1.0496252,0.37616473,0.55398196,-2.7888563,1.5428109,1.4933305,10.0,1
0.77595633,0.18739174,0.28029495,-2.6938596,0.9245961,1.5916831,10.0,1
0.40287185,0.026005765,0.19454072,-2.0171335,0.7823918,1.3117919,10.0,1
0.11915871,-0.119070634,-0.031343967,-1.0026699,0.44497037,0.9808082,10.0,1
-0.06642657,-0.24164784,0.08298214,0.26591933,0.38215756,0.47530842,10.0,1
-0.01815393,-0.367239,0.3149088,0.45542294,0.07736673,0.21147957,10.0,1
-0.0069796443,-0.39424986,0.402844,0.19424167,-0.2988351,-0.12877615,10.0,1
0.11771909,-0.39314973,0.32568702,0.63764894,-0.5361547,-0.28706837,10.0,1
0.20038697,-0.32792014,0.30418402,0.5879985,-0.9182964,-0.39424363,10.0,1
0.34515673,-0.12066237,0.3101836,0.5171719,-1.6302041,-0.3949484,10.0,1
0.41629854,0.04759843,0.4042109,0.6873077,-1.6351671,-1.112702,10.0,1
0.69668937,0.15274742,0.44279236,0.8430018,-1.8071365,-1.7208431,10.0,1
0.94830066,0.30514294,0.48391598,1.1447833,-1.4906545,-2.335272,10.0,1
1.1524732,0.405231,0.47230473,2.0185542,-1.0614767,-2.7533379,10.0,1
1.4339222,0.4248933,0.5297781,2.389662,-1.0928499,-2.451823,10.0,1
1.5410311,0.51475775,0.65397686,2.2689612,-1.0356022,-1.7546461,10.0,1
1.4756469,0.508458,0.6507398,1.9641049,-1.0025781,-1.0810539,10.0,1
1.2232999,0.4845961,0.7369807,0.5770748,-1.307416,-0.6872769,10.0,1
1.0559562,0.43940574,0.49980742,-1.1099665,-1.6690823,-0.52509564,10.0,1
1.0313795,0.40967232,0.19275846,-0.056043714,-0.7449506,-0.3315981,10.0,1
1.0973386,0.47987103,0.18968615,1.263637,-0.063274436,0.2499561,10.0,1
0.83481044,0.5018877,0.71400017,0.6651188,0.4683058,0.42251465,10.0,1
1.0824726,0.40671095,0.704562,-0.51837194,0.7486587,0.279224,10.0,1
1.4247181,0.35398462,0.8206769,-1.0627396,1.151584,1.1055473,10.0,1
1.5084815,0.53662735,0.8665538,-1.425678,1.7031437,1.541116,10.0,1
1.5390922,0.6308304,0.8878252,-1.9888346,2.3221328,1.5361853,10.0,1
1.6210883,0.63828576,0.67042506,-2.4290135,2.3113744,1.7127746,10.0,1
1.4167541,0.6386724,0.44317594,-2.4892583,2.0192032,1.8638494,10.0,1
1.1112792,0.51554954,0.30658168,-2.8643954,1.3943411,1.7245436,10.0,1
0.781011,0.2791906,0.15236901,-2.251803,0.9209203,1.7721466,10.0,1
0.49633938,0.010767392,0.19719794,-1.2426845,1.004001,1.4574684,10.0,1
0.31589556,-0.21138632,0.2695534,-0.92065704,0.7091341,1.1520149,10.0,1
0.17878342,-0.3329864,0.27487856,-0.6629413,0.30270758,0.8828762,10.0,1
0.061799336,-0.40219826,0.24832538,-0.4227099,0.108327165,0.57055825,10.0,1
-0.032002304,-0.3880412,0.15546228,0.13726488,-0.15912175,0.32337388,10.0,1
-0.098977424,-0.31527716,0.18448295,0.6515814,-0.16409948,-0.2189891,10.0,1
0.0076537766,-0.2685465,0.17026618,0.62719285,-0.8892596,-0.5814001,10.0,1
0.15646763,-0.16344813,0.17161983,0.5741171,-1.5036216,-0.83125144,10.0,1
0.3628848,0.038728703,0.24865036,0.9773571,-1.5488716,-1.3524232,10.0,1
0.98553073,0.14783561,-0.07334568,0.045907922,-0.22432837,0.031385127,14.0,1
0.98170024,0.14089271,-0.09393494,-0.6793087,-0.86524546,0.63869005,14.0,1
0.94674635,0.13754098,-0.11093303,-1.2538059,-0.7429114,1.6746951,14.0,1
0.95775926,0.15453908,-0.1293676,-0.22674653,0.4368571,2.0454557,14.0,1
0.9563228,0.14879325,-0.12122766,-0.3530895,2.2702284,3.5555465,14.0,1
0.9527317,0.1456809,-0.11691829,-0.6591691,1.4390839,5.6842318,14.0,1
0.95656216,0.13155572,-0.11931238,-0.7914675,-0.74983895,7.152398,14.0,1
0.9663779,0.13011928,-0.113805965,0.8822155,-1.7353926,2.9044995,14.0,1
0.96589917,0.124852255,-0.10853894,0.5469688,-0.96060604,0.6203296,14.0,1
0.9824184,0.12772517,-0.11835475,-0.24556014,-0.26663452,0.28977722,14.0,1
0.9670962,0.114078805,-0.10494778,-0.030354738,-0.10788458,-0.562454,14.0,1
0.9690116,0.11671231,-0.1051872,0.04117027,-0.2073816,-0.6660074,14.0,1
0.9723633,0.1212611,-0.11284832,0.11513596,-0.13776883,-0.5092771,14.0,1
0.9544076,0.117430545,-0.12817055,-0.05612887,-0.12265036,-0.17797627,14.0,1
0.94674635,0.13514689,-0.20166941,-0.07351572,-0.0585787,-0.33697402,14.0,1
0.9333395,0.12916163,-0.21052754,0.050468475,0.45010373,-1.0276961,14.0,1
0.92496,0.14472327,-0.19400826,0.051830754,1.2529309,-1.9757186,14.0,1
0.95464694,0.14137153,-0.18898067,0.32899237,1.6364797,-3.3969257,14.0,1
1.0389192,0.10809356,-0.03264601,1.2301778,0.9636207,-4.4955454,14.0,1
1.1492871,0.06236627,0.10692994,1.9159796,0.49899447,-4.6180115,14.0,1
1.410244,-0.0556628,0.4361185,2.2343483,-0.7892098,-3.2753046,14.0,1
1.6606667,-0.114557624,0.43085152,1.897324,-2.3248205,-2.1538165,14.0,1
1.8172407,-0.24359956,0.23309894,0.7819195,-2.0539122,-0.7912613,14.0,1
2.2833717,-0.44135207,0.1251251,0.7948188,-1.592309,-0.1671566,14.0,1
2.3092282,-0.45954722,0.12488569,-0.29844344,-1.307301,0.5729015,14.0,1
2.3556733,-0.35300988,-0.38433915,-1.4604895,-1.3709779,1.4516673,14.0,1
2.3678834,-0.26610407,-0.57371235,-1.9749582,-0.91126496,3.386558,14.0,1
2.243869,-0.18302886,-0.69054437,-0.30226684,0.68910015,5.1195517,14.0,1
2.0106838,0.11503644,-0.8729746,0.58290565,1.4858855,7.098602,14.0,1
1.6879594,0.33577234,-0.92277193,1.5616663,0.105771266,7.2576647,14.0,1
0.7523455,0.86893815,-1.1425502,1.5825951,-0.3810817,3.0616977,14.0,1
-0.65251166,1.1365983,-0.7628461,1.0478158,-0.12337528,0.20168363,14.0,1
-0.7420509,0.59696853,-0.26678887,0.33363158,-0.38624266,-0.25515938,14.0,1
-0.5715911,0.23952956,0.051147442,0.062526464,0.11936987,-0.44318473,14.0,1
-0.2177433,-0.22731967,0.16007894,0.10835775,0.062249146,-0.68070376,14.0,1
-0.19523875,-0.4698419,0.19838451,-0.022679303,0.02771132,-0.65549856,14.0,1
-0.15166616,-0.62474006,-0.030251915,-0.13260423,0.4242451,-1.2771974,14.0,1
-0.10019304,-0.7226587,-0.098004915,0.09618323,1.0490035,-2.5038903,14.0,1
0.09253191,-0.84451836,-0.07909153,0.73890346,0.8714501,-4.0203333,14.0,1
0.1818318,-0.92089003,-0.098004915,1.2157553,0.15591314,-5.252295,14.0,1
0.24168427,-0.9714055,-0.08890734,2.4087353,-0.5123535,-4.9426017,14.0,1
0.27472284,-1.0295821,-0.07813389,2.1814466,-1.7318387,-3.6622605,14.0,1
0.27783516,-1.0355675,-0.07813389,0.98536384,-2.2188416,-1.7020383,14.0,1
0.31733778,-1.0262305,-0.061854016,0.70181024,-1.264277,-0.36956933,14.0,1
0.30919784,-1.0077958,-0.021154337,0.67343396,-0.78037965,-0.11511889,14.0,1
0.23354432,-0.93788815,-0.0929773,0.1790556,-0.69331723,-0.15782498,14.0,1
0.16387606,-0.853137,-0.075979196,-1.0297142,-0.62838787,0.9286965,14.0,1
0.10905119,-0.7770047,-0.08555559,-2.426509,-0.06264578,2.5207238,14.0,1
0.08343434,-0.748515,-0.060896374,-1.7289687,0.851433,4.2035007,14.0,1
-0.0070625916,-0.6213883,-0.0517988,-1.5561546,1.6118488,6.528095,14.0,1
0.83795625,0.5106679,-0.07524497,-0.06075491,-0.07482226,0.012060225,12.0,1
0.86109954,0.51063347,-0.10990822,-0.015236724,-0.14906856,0.10068805,12.0,1
0.836853,0.5039929,-0.070456564,0.0141546205,-0.1291369,0.0591143,12.0,1
0.8633127,0.494349,-0.10475495,0.049113564,-0.18545869,0.13451253,12.0,1
0.82222825,0.49189162,-0.0660273,0.044540804,-0.12791517,0.07806858,12.0,1
0.8312333,0.488194,-0.07522486,-0.026459191,-0.027611108,0.0043982295,12.0,1
0.8788654,0.4964176,-0.09248705,-0.06618288,-0.025254915,0.012322024,12.0,1
0.8909974,0.4898489,-0.094301865,-0.07639306,-0.1788788,0.114877574,12.0,1
0.8573378,0.483555,-0.006177998,-0.36536723,-0.79964006,0.27186993,12.0,1
0.8229963,0.48788658,-0.16031766,-0.39906952,-0.5620484,0.107320294,12.0,1
0.8035649,0.4670896,-0.11742409,-0.24668483,-0.16310102,-0.02825688,12.0,1
0.84129655,0.47348022,-0.14951119,-0.30862656,-0.12131783,-0.04207989,12.0,1
0.83700716,0.47410554,-0.13067171,-0.16029103,0.11346386,-0.043249257,12.0,1
0.8465169,0.48948878,-0.10281469,-0.32230994,0.103026785,-0.090268426,12.0,1
0.87926674,0.5082545,-0.15183261,0.14289011,0.47230354,-0.15601498,12.0,1
0.9061718,0.5083245,0.08317936,0.2804395,0.8259596,0.08620181,12.0,1
0.87618303,0.5703515,0.23018524,-0.11650073,0.37215656,0.112242125,12.0,1
0.86406934,0.62051576,0.6514958,-0.82074106,0.6986029,0.025848325,12.0,1
1.0279783,0.73501414,0.51226056,-0.8982686,0.9320931,-0.30560714,12.0,1
1.051655,0.81710273,0.89860713,-0.97747165,1.3514782,-0.36527997,12.0,1
1.3508172,0.87395066,1.2479805,-1.0553483,2.1754482,-0.5098107,12.0,1
1.5042751,1.0974934,0.93629855,-2.76324,2.346246,-0.32534683,12.0,1
1.4405338,1.0952094,0.91885823,-3.3205063,2.6393392,-0.10560987,12.0,1
1.3800015,1.0307105,0.40775362,-3.17992,2.8329313,-0.049497537,12.0,1
1.2281163,0.8915901,0.25643337,-3.1603026,2.787378,0.07347836,12.0,1
0.9106595,0.58472824,0.5642655,-1.9658865,2.4765348,0.16364206,12.0,1
0.7791489,0.47603145,0.25283632,-3.0198035,2.0184383,0.21141173,12.0,1
0.42993927,0.16999502,-0.008037814,-2.5752158,1.3979913,0.31120965,12.0,1
0.17935157,-0.07878743,-0.5425395,-1.1011282,1.4230716,0.3840248,12.0,1
0.024666982,-0.2613118,-0.081025526,0.20650735,0.98815304,0.33620277,12.0,1
-0.036289394,-0.28206283,-0.17647372,0.22074924,-0.10592403,0.116535634,12.0,1
0.035446636,-0.20937102,-0.12993142,0.8021184,-0.5472654,0.21256365,12.0,1
0.1623288,-0.057033718,-0.021110155,1.2463048,-1.0071946,0.15910421,12.0,1
0.29705912,0.10657932,0.039940074,1.3174094,-1.8534,0.2605253,12.0,1
0.64601403,0.4043979,0.07057916,1.7312794,-2.2772183,-0.09911725,12.0,1
0.856223,0.6612929,0.045744576,2.830226,-2.7630308,-0.19048524,12.0,1
1.3243757,0.890463,0.5694417,2.892412,-2.7661724,-0.13444272,12.0,1
1.2742889,0.96539193,0.6553447,2.9427123,-3.2822487,-0.39107594,12.0,1
1.5086794,0.9814455,0.5814099,1.9450822,-3.3705623,-0.083514005,12.0,1
1.4410719,0.9627191,0.94510823,2.6924846,-2.8423908,-0.37592646,12.0,1
1.507898,0.9329284,0.746355,2.0867157,-2.3393345,-0.14693926,12.0,1
1.2896377,0.82398176,1.1368896,1.7150129,-1.7663081,0.012444197,12.0,1
1.1060369,0.71364355,0.6157858,0.61777675,-1.1967897,0.13700834,12.0,1
1.0111672,0.6248225,0.9972569,0.76747364,-1.2904965,0.0964818,12.0,1
0.91376144,0.74346954,0.9577516,-1.5155042,0.10824532,0.05942846,12.0,1
0.80408686,0.59363467,-0.2146785,-0.77726495,0.8730137,-0.17660987,12.0,1
0.8982585,0.5470981,0.22745201,0.04600688,1.0319782,-0.09590584,12.0,1
1.0238985,0.56818044,0.29684174,-0.4201531,0.60025364,-0.10177015,12.0,1
1.035203,0.6492663,0.6935533,-1.6807171,0.43217844,0.24530603,12.0,1
1.2316377,0.683851,0.54983896,-1.0147344,0.4910484,0.29092893,12.0,1
0.811001,0.55412006,-0.123331405,-0.029558213,-0.008376483,0.0038102716,17.0,1
0.7765259,0.5720758,-0.13697776,-0.14366774,-0.13763547,0.04143954,17.0,1
0.779758,0.5599856,-0.13889305,-0.2699946,-0.16353613,0.020670136,17.0,1
0.7856235,0.55268353,-0.13374574,-0.1497764,-0.1122235,0.06294197,17.0,1
0.80094576,0.54693776,-0.118902326,-0.09382118,-0.06237693,-0.0423711,17.0,1
0.81147975,0.53987515,-0.10812888,-0.04837285,-0.053580478,-0.0018096846,17.0,1
0.81878185,0.52503175,-0.11279738,-0.12949568,-0.25394413,0.069539316,17.0,1
0.8241685,0.5165327,-0.14380094,-0.5211822,-0.39664212,0.21272601,17.0,1
0.8264429,0.5208421,-0.13350633,-0.61330056,-0.5918744,0.42335218,17.0,1
0.82057744,0.56812555,-0.11207914,-0.9106695,-0.84306204,0.6928657,17.0,1
0.8099235,0.5256303,-0.13602014,-0.78312093,-0.83744216,1.1087424,17.0,1
0.8193804,0.5270667,-0.16008082,0.76994157,1.5911117,2.124977,17.0,1
0.7892147,0.55902797,-0.15122266,0.15272383,2.8292124,1.4361658,17.0,1
0.7856235,0.5472969,-0.15636997,-1.2754779,0.42313838,0.8761251,17.0,1
0.808128,0.5344884,-0.15625027,-1.9203067,0.92087096,0.79891187,17.0,1
0.8168665,0.5341293,-0.12991518,-1.915664,1.0286274,1.4728178,17.0,1
0.854813,0.5286229,-0.091849014,-1.0949063,0.7290594,1.456691,17.0,1
0.8538553,0.5140189,-0.04636113,-0.23725222,2.362756,0.2623282,17.0,1
0.8613967,0.5136598,-0.048635524,-0.30591342,2.5733821,-0.0042531383,17.0,1
0.90939844,0.53676283,-0.07604796,-1.4159768,2.2874973,0.23691624,17.0,1
0.9064058,0.5540003,-0.025652181,-1.4171984,1.6658815,1.0105153,17.0,1
0.9447113,0.54202986,0.013730745,-1.1967986,1.1422483,1.1908426,17.0,1
0.9082014,0.50085133,0.026539171,-0.38728058,1.1801219,0.64424086,17.0,1
1.0672891,0.43417567,0.051557504,-0.323995,0.62790024,0.36251003,17.0,1
1.215843,0.42567664,0.48560762,-0.70786244,0.33150867,-0.14988329,17.0,1
0.8906048,0.6556298,0.7621261,-0.4960145,0.25209624,0.15261692,17.0,1
0.9481829,0.7055468,0.70442826,-0.29125267,-1.0519778,0.25182134,17.0,1
1.2516348,0.7494785,0.96083623,0.2624351,-1.3561884,-0.036506794,17.0,1
1.6233187,0.7013571,0.67079115,0.5461207,-2.0159223,-0.274011,17.0,1
1.7560714,0.66939586,0.33214587,0.46108833,-2.2131095,-0.58261985,17.0,1
1.5304277,0.6362376,0.06903443,0.9148386,-2.1671724,-1.0869497,17.0,1
1.4113213,0.56154174,0.046051078,0.8601051,-2.1464028,-0.9992296,17.0,1
1.2977211,0.3719291,-0.039178837,0.9573548,-1.9352881,-1.2176749,17.0,1
1.6164955,0.2744893,-0.051269032,-0.45814088,-2.2267928,-0.8887851,17.0,1
1.4878128,0.19680081,0.15534168,-0.49821368,-2.3389475,-1.3349609,17.0,1
1.3457229,0.096607774,-0.26254827,1.042876,-1.9655871,-1.960975,17.0,1
1.191902,0.015567531,-0.13326691,3.7367895,-1.788925,-1.5389897,17.0,1
0.502641,0.026221266,-0.4767004,2.082812,-1.093761,-0.5562305,17.0,1
0.2619144,-0.073133826,-0.09699632,1.102252,-0.93078226,-0.7849382,17.0,1
0.11695172,-0.1405277,-0.13482308,3.1344767,4.286491,-0.07389174,17.0,1
0.09743982,-0.24215719,0.009181959,-0.54341763,-1.3972384,0.049014278,17.0,1
-0.1891338,-0.24191777,0.098003015,-1.4299043,-3.7974484,0.81357265,17.0,1
-0.042016435,-0.35755277,-0.087779045,-0.40731695,0.24061193,0.29336014,17.0,1
0.07254119,-0.3203245,-0.27739167,-1.1889794,1.4992377,0.51889145,17.0,1
0.1309572,-0.2711258,-0.23274171,-1.6886668,1.8315481,0.550412,17.0,1
0.19691463,-0.16398987,-0.19311938,-1.8396726,3.3655515,0.78645015,17.0,1
0.44949207,-0.084984615,-0.18773267,-2.0468779,3.2795417,1.0259091,17.0,1
0.56811965,-0.08139347,-0.035348278,-1.5806658,3.3882756,1.1326884,17.0,1
0.52454704,0.05387311,-0.2828981,-0.89063317,3.3907192,0.8333646,17.0,1
1.058431,0.06392832,-0.14942709,-1.280609,2.8245697,0.61174285,17.0,1
0.56503165,0.14748283,0.121625446,2.3064177,-2.0619144,0.31426397,25.0,1
0.83413994,0.37541083,0.863828,1.8667169,-1.9884536,0.55913365,25.0,1
0.88393927,0.5832275,1.1722012,1.5813905,-1.4997789,0.6176895,25.0,1
0.8149862,0.70102227,1.4346057,1.137431,0.29839894,0.38453093,25.0,1
0.80253637,0.773806,1.5552734,-0.82044435,0.9776462,0.34407422,25.0,1
0.85329354,0.7891289,1.9661185,-2.2066197,1.7654878,0.05235988,25.0,1
0.71538746,0.80445176,1.7745823,-2.0575686,2.7417727,-0.48101273,25.0,1
0.5880159,0.725922,1.1741165,-1.6349022,3.1601803,-0.82808894,25.0,1
0.6339846,0.40701428,0.7642292,-2.6346095,2.5107434,-0.5587323,25.0,1
0.6445191,0.21164744,0.8829816,-1.8201516,1.5791739,-0.1743933,25.0,1
0.47500962,0.13311762,0.45681366,-1.3123131,0.9850987,-0.24040166,25.0,1
0.02777274,-0.07852982,0.114921674,0.40175733,-0.0028797933,-0.11903145,25.0,1
-0.049799394,-0.17525557,-0.29496565,1.4600203,-1.2442627,-0.09667379,25.0,1
-0.063206926,-0.19057846,-0.20015526,2.0509014,-2.0214577,0.10665707,25.0,1
0.15035586,-0.101514146,0.0057460843,2.1424615,-2.8912776,0.22589797,25.0,1
0.34380737,0.12066777,0.3821146,1.9007857,-2.4526415,0.155631,25.0,1
0.5267244,0.3620033,0.7872135,1.2577366,-2.3099782,0.14391986,25.0,1
0.6933608,0.4606444,1.2545617,1.5356104,-1.1952888,0.24506168,25.0,1
0.83126676,0.52576673,1.2919112,1.0352246,-0.14234905,0.4526686,25.0,1
0.88393927,0.61291564,1.5428236,-0.7310137,0.51665235,0.110915676,25.0,1
0.6196194,0.6675035,1.934515,-1.7956645,2.0465555,-0.11690215,25.0,1
0.6588843,0.6885724,1.7841591,-2.5600839,2.807781,-0.34154347,25.0,1
0.6703765,0.66175735,1.571554,-2.486623,3.1452754,-0.5512797,25.0,1
0.62249243,0.4721366,1.1396401,-1.6242558,2.6896048,-0.2915049,25.0,1
0.641646,0.17525557,0.6301539,-1.4773339,1.5610749,-0.13074261,25.0,1
0.42521024,-0.063206926,0.37924153,-0.86409503,1.0755941,0.12156218,25.0,1
0.15897499,-0.15322891,0.0842759,-0.08157669,-0.7193898,-0.39690533,25.0,1
-0.09768343,-0.18100165,-0.20781669,1.5228347,-1.6573472,-0.08922123,25.0,1
-0.1043872,-0.17142484,-0.38019925,3.0420914,-2.1513453,-0.015760323,25.0,1
-0.049799394,-0.0038307228,-0.15131354,3.653201,-2.5186498,0.08110545,25.0,1
0.28538886,0.25570074,0.36966473,2.1051986,-1.9639666,0.22163936,25.0,1
0.6866571,0.4548983,1.1530476,1.3013873,-1.4625161,0.4718323,25.0,1
0.74603325,0.44244847,1.124317,1.0820693,-1.2357454,0.646435,25.0,1
0.82168996,0.58418524,1.3244724,-0.27108455,-0.27862436,0.59852576,25.0,1
0.6722919,0.7757214,1.8205509,-1.1653912,1.9592543,0.16095427,25.0,1
0.48937482,0.89830446,2.02741,-2.3961277,2.7779708,-0.5448918,25.0,1
0.524809,0.79966336,1.7870321,-3.514011,3.2719688,-0.6311285,25.0,1
0.61291564,0.6770803,1.6280571,-4.289077,2.9610908,-0.49591786,25.0,1
0.66654575,0.4989516,1.1453861,-3.5491445,1.9965171,0.12582079,25.0,1
0.6694188,0.29209262,0.4414908,-1.5380191,1.1405377,0.34513885,25.0,1
0.25187,0.009576807,-0.19440918,0.5188689,-0.013526302,0.074717544,25.0,1
-0.20781669,-0.1838747,-0.48650178,1.6921141,-0.7917861,-0.1701347,25.0,1
-0.24133554,-0.22218192,-0.34380737,2.802545,-1.9980354,-0.41393974,25.0,1
-0.15035586,-0.11683705,-0.11587936,3.4083314,-3.021165,-0.42884484,25.0,1
0.1043872,0.04309563,0.2633622,3.217759,-2.688994,-0.24678956,25.0,1
0.3581726,0.2576161,0.99694556,1.6303644,-2.3919563,-0.08709193,25.0,1
0.4644751,0.39456445,1.4642937,1.7783508,-1.2676849,-0.080704026,25.0,1
0.5956774,0.37541083,1.160709,1.3439733,-1.5732398,0.2620961,25.0,1
0.74603325,0.3581726,1.2727576,1.52177,-0.36273178,0.63578856,25.0,1
0.8111555,0.4721366,1.0333375,0.6114935,0.0024260078,0.6240774,25.0,1
0.061753165,-0.15739769,-0.5927287,0.0031939526,0.97522014,-0.66221285,17.0,1
0.1728853,-0.08788061,-0.48012462,-0.6813765,1.0806206,-0.62282073,17.0,1
0.03520913,0.12021861,-0.454951,-0.014905112,3.1886292,-1.7822255,17.0,1
0.10978085,0.48985076,-0.30628735,1.3893694,6.6008353,-3.9466608,17.0,1
1.1345931,0.83108294,-0.5228189,3.256767,5.808735,-6.5731544,17.0,1
2.0635893,0.5052024,0.32793382,3.860424,0.1841846,-3.8380663,17.0,1
1.633625,0.139106,0.22494099,-1.7449627,-2.839424,-0.98906064,17.0,1
1.3263149,0.30863175,0.095989294,-0.9592504,-0.7889063,1.1817625,17.0,1
1.0168808,0.543433,0.35224932,-0.43437755,-0.46844637,1.1359824,17.0,1
0.9913767,0.5785445,0.38886625,-0.9965132,0.5919459,0.25871015,17.0,1
1.1532601,0.60923237,0.332251,-0.85917324,2.689308,0.067073,17.0,1
1.2424681,0.6590596,0.35992417,-1.4266322,2.9597294,-0.1277581,17.0,1
1.2448145,0.7026455,0.2704069,-2.0483882,2.8032258,-0.06813765,17.0,1
1.0868018,0.6133868,0.28844002,-1.5852652,2.6382048,0.08197811,17.0,1
0.9488748,0.50008553,0.39211947,-1.8365227,2.1293018,0.2491283,17.0,1
0.69044465,0.36260855,0.20946965,-2.4316626,1.6778897,0.21080087,17.0,1
0.5226274,0.23710832,0.31377643,-0.7431263,1.676825,0.20334831,17.0,1
0.37887764,0.1363833,0.57321787,-0.7047989,1.2892922,0.04897394,17.0,1
0.3653475,0.05994602,0.60957044,-0.6866998,0.7250272,-0.29064968,17.0,1
0.31220677,-0.0212653,0.6973467,-0.16502088,0.76229,-0.1298874,17.0,1
0.21695109,-0.15387534,0.57401466,-0.5525538,0.44928265,-0.07665486,17.0,1
0.1400244,-0.1686198,0.15615079,-0.31087804,0.006387905,0.38327432,17.0,1
0.11767693,-0.06555228,0.117969975,0.62282073,-0.917729,0.2725506,17.0,1
0.34109327,0.030724311,0.13525996,1.549067,-1.006095,0.42798963,17.0,1
0.5146595,0.22111985,0.36772257,2.0569055,-1.5086102,0.82403976,17.0,1
0.7525915,0.40367967,0.5209869,1.8982724,-1.66192,0.7740012,17.0,1
0.956045,0.42074648,0.5214399,1.0848792,-2.3092277,0.41734314,17.0,1
0.9911372,0.32218486,0.59855807,0.72928584,-2.6584332,0.09262462,17.0,1
1.1658038,0.38531804,0.46986404,1.0497457,-2.3975937,-0.22251202,17.0,1
1.1421443,0.44163352,0.55733186,1.2147666,-1.8940139,-0.34175292,17.0,1
1.1045046,0.48772764,0.48961037,1.2243484,-1.3808521,-0.1841846,17.0,1
1.0153339,0.4023772,0.4800585,0.21399482,-0.76761323,0.04790929,17.0,1
0.99000806,0.41926685,0.25886303,0.005323254,-1.0912671,0.026616272,17.0,1
0.9566761,0.36627838,0.30854076,0.52061427,-1.0305821,-0.31726596,17.0,1
0.99116886,0.4584542,0.539611,0.92305225,-1.0593276,-0.57278216,17.0,1
1.0607032,0.4923829,0.63324726,-0.04790929,0.32791245,-0.29064968,17.0,1
1.135163,0.5887304,0.49568304,-0.90814716,1.6076227,-0.042586032,17.0,1
1.072563,0.648572,0.4320279,-1.323361,1.8099065,0.030874874,17.0,1
1.0833101,0.6540681,0.30950326,-1.7694497,2.0015435,-0.09262462,17.0,1
1.0445912,0.5825428,0.26810938,-1.7609324,2.2315083,-0.1841846,17.0,1
0.97203255,0.47508812,0.24761598,-1.8940139,1.8950785,-0.09688323,17.0,1
0.82786036,0.3467819,0.31633055,-1.9429878,1.0689094,0.10859439,17.0,1
0.7086176,0.2535718,0.2975485,-1.7651911,0.95179784,0.2533869,17.0,1
0.6033695,0.16613749,0.40283495,-0.9954485,0.69415236,0.19163716,17.0,1
0.5730282,0.08701008,0.57344675,-0.7708072,0.71118677,0.18737854,17.0,1
0.5393523,0.03583258,0.64568555,-0.41734314,0.63666123,0.0021293017,17.0,1
0.48959127,-0.018988892,0.6680072,-0.36304593,0.4460887,0.035133477,17.0,1
0.4342335,-0.059735335,0.59298825,-0.36091664,0.48867473,0.057491146,17.0,1
0.37701112,-0.10446477,0.56618655,-0.22144738,0.26509807,0.08943067,17.0,1
0.3303261,-0.10985364,0.4106956,-0.27574456,0.011711159,0.32365385,17.0,1
0.39743748,-0.43779892,-0.8273471,0.08700466,0.106482536,-0.012391837,15.0,1
0.44905934,-0.46594325,-0.80914533,0.29133037,0.19755381,-0.043877576,15.0,1
0.597045,-0.63856614,-0.83769006,0.11243411,0.18720402,-0.26019368,15.0,1
0.7428298,-0.7256299,-0.8289588,1.2182049,0.9736319,-0.17390461,15.0,1
0.8550067,-0.78647614,-0.74227726,0.6607991,0.7959399,0.33412582,15.0,1
0.91404116,-0.8207773,-0.741423,1.1890404,1.794024,0.6919707,15.0,1
1.0881274,-0.87739545,-0.6186483,1.3333967,2.857104,0.97581357,15.0,1
0.9428884,-0.663213,-0.6712106,0.9621826,2.7934692,1.4221292,15.0,1
0.66851765,-0.44917044,-0.5615351,0.74097955,2.5715332,1.6766855,15.0,1
0.493354,-0.39159563,-0.6745127,0.6488436,1.8335557,1.7937098,15.0,1
-0.059463345,-0.20305224,-0.18672188,0.44992843,0.7504043,1.9008381,15.0,1
-0.32493433,-0.23157868,-0.25110194,0.16070992,-0.07108726,0.7825882,15.0,1
-0.21322568,-0.29841617,0.0832349,-0.16304865,-0.669997,0.2916445,15.0,1
-0.13404945,-0.29166165,-0.18382105,-0.8519825,-1.2555549,-0.49792498,15.0,1
0.017745825,-0.39428672,-0.21230154,-1.0643017,-1.143819,-1.3578662,15.0,1
0.3501386,-0.44532824,-0.49027696,-1.4873695,-1.4146068,-1.7510539,15.0,1
0.65014166,-0.42524186,-0.7823753,-1.7767801,-1.4372437,-2.0711997,15.0,1
0.5724747,-0.30507204,-0.72419524,-2.7510579,-1.9452567,-1.8977139,15.0,1
0.89141303,-0.41215605,-0.8402384,-1.5397993,-0.9673138,-1.6057029,15.0,1
1.0995705,-0.4507238,-1.3827357,-1.934645,-0.74668676,-1.7679138,15.0,1
1.1008846,-0.47537166,-1.4399256,-2.0495052,-1.1159984,-1.6811883,15.0,1
0.77494085,-0.47344,-1.0875977,-1.2193394,-1.0621027,-1.3120513,15.0,1
1.2263608,-0.7562354,-0.9147326,1.2770051,0.5632352,-1.6111833,15.0,1
1.3567768,-0.8391754,-0.69097525,0.6640803,0.29567623,0.052412238,15.0,1
1.2460134,-0.6268346,-0.9701727,0.95130914,0.8710415,1.0825405,15.0,1
1.3755666,-0.59380513,-1.1610509,2.1960256,1.7059895,1.3658423,15.0,1
1.2561083,-0.42657012,-1.0140861,1.6731774,2.3236442,2.3323882,15.0,1
1.137695,-0.44572663,-0.8561263,2.0309525,2.8796012,2.505263,15.0,1
1.1403755,-0.44031096,-0.9540616,1.3517749,3.0129967,2.6095116,15.0,1
0.6679391,-0.37079096,-0.6346339,1.5622442,3.3443127,2.4793448,15.0,1
0.20135525,-0.04518146,-0.52745605,1.1639426,2.2378612,2.5462608,15.0,1
-0.35574773,0.08639333,-0.3847281,0.8562585,1.3932964,1.683981,15.0,1
-0.7447844,0.026797822,0.024859477,0.58559287,0.07161086,0.5782276,15.0,1
-0.5300542,-0.03430029,-0.08353561,-0.2080258,-0.44568726,-0.5991192,15.0,1
0.08560133,-0.24796459,-0.24004456,-0.30422834,-1.1222817,-1.2161105,15.0,1
0.3853238,-0.47736263,-0.26159722,-1.5630994,-2.4856455,-1.4942636,15.0,1
0.44476128,-0.49036312,-0.35845223,-1.9968138,-2.179445,-1.8345156,15.0,1
1.218484,-0.7334675,-0.41238308,-1.6277289,-1.5187505,-2.023046,15.0,1
0.91265726,-0.49730825,-0.7317782,-3.2181952,-2.3121424,-1.8363308,15.0,1
0.9410755,-0.5263145,-0.94333553,-3.029595,-1.6406794,-1.2831835,15.0,1
1.0709561,-0.6308444,-1.0059736,-1.6759524,-0.6618812,-1.4340149,15.0,1
0.97877645,-0.6872412,-1.0532677,-2.6591313,-1.658953,-1.0467961,15.0,1
1.0892555,-1.0723016,-1.2114028,0.4469788,-0.2728648,-2.1246417,15.0,1
1.4960486,-1.3674885,-0.53037983,1.2772493,0.28509954,-0.611511,15.0,1
1.0727413,-0.896597,-0.6262839,0.90736175,0.55642843,0.9376607,15.0,1
1.0985086,-0.7310015,-1.1107363,1.5600625,1.3734345,0.7251843,15.0,1
1.4981105,-0.8896346,-0.8205781,2.2757523,2.0282123,0.96785486,15.0,1
1.6556154,-0.8404769,-0.83135587,3.1247327,3.4102511,1.2694478,15.0,1
1.2618123,-0.4861091,-0.7862472,2.326838,4.0169625,1.2800593,15.0,1
0.99008095,-0.32239363,-0.7617565,1.6217251,4.400359,1.1604868,15.0,1
0.6406194,0.7654684,-0.037831258,-0.0010646508,0.0010646508,0.0010646508,9.0,1
0.65562814,0.76941407,-0.043655876,-0.028745573,0.005323254,0.034068827,9.0,1
0.6131819,0.78018606,-0.044987053,-0.035133477,-0.07984881,0.009581857,9.0,1
0.6540988,0.77250737,-0.043774627,0.03832743,-0.057491146,-0.055361845,9.0,1
0.6364037,0.7701984,-0.029915074,-0.020228365,-0.087301366,-0.007452556,9.0,1
0.65130043,0.78307253,-0.03200377,-0.02448697,-0.15330972,-0.006387905,9.0,1
0.63367623,0.80328053,-0.023115538,-0.08091346,-0.41627848,0.06813765,9.0,1
0.6392585,0.7941912,-0.07196013,-0.043650683,-0.10114183,0.06600835,9.0,1
0.63588655,0.77332526,-0.069821626,0.13095206,-0.071331605,0.043650683,9.0,1
0.65742385,0.7935668,-0.011935575,0.16608553,-0.21080087,-0.031939525,9.0,1
0.73782307,0.778717,0.04182958,0.26722735,-0.3247185,-0.104335785,9.0,1
0.78527325,0.80147046,0.17544806,0.3289771,-0.47589892,0.18737854,9.0,1
0.79090536,0.8314967,0.25145918,-0.05003859,-0.49612728,0.31726596,9.0,1
0.82201564,0.9296877,0.31050688,-0.6292086,-0.46205845,0.43650684,9.0,1
0.89520055,0.9557432,0.24435511,-0.82191044,-0.6930877,0.40456733,9.0,1
0.94431436,0.9346771,0.28610808,-1.3010033,0.006387905,0.6057863,9.0,1
1.0024666,0.92672265,0.30296996,-2.1931808,0.33642966,0.7559021,9.0,1
1.0545962,0.9531719,0.097195014,-2.9490829,0.7250272,1.1061722,9.0,1
1.0108042,0.9479324,0.045165177,-3.0502245,0.606851,1.5426791,9.0,1
0.87287223,0.9075834,-0.037378278,-2.780868,0.08304276,1.4798647,9.0,1
0.94920236,0.7310542,0.06199833,-1.457507,0.8730137,1.189215,9.0,1
0.98036337,0.6414679,0.33480996,-1.2669345,0.9028239,1.0944611,9.0,1
0.922259,0.49639082,0.30497915,-1.3510419,0.606851,1.2126373,9.0,1
0.8251395,0.36231932,0.48112053,-1.231801,1.4979638,1.3244257,9.0,1
0.80096006,0.27629375,0.578465,-1.9855738,2.0164487,0.8581086,9.0,1
0.81379014,0.22020335,0.29984504,-1.8152297,1.4862525,0.7910356,9.0,1
0.6822354,0.052761503,0.34375376,-1.3797874,1.0667801,1.1178833,9.0,1
0.50823826,-0.09654953,0.33297312,-1.2797103,0.268292,1.1200126,9.0,1
0.41196546,-0.18227153,0.28794873,-1.051875,0.11391764,1.1072369,9.0,1
0.31125677,-0.30142713,0.3820753,-0.6813765,0.16289158,0.89750063,9.0,1
0.22958958,-0.3457687,0.32907632,-0.86981976,0.21505947,0.7367384,9.0,1
0.17585412,-0.34429005,0.26826072,-0.94328064,-0.43437755,0.63985515,9.0,1
0.11817302,-0.31957996,0.29614264,-0.60259235,-0.17460273,0.59939843,9.0,1
0.15631264,-0.24333613,0.19848986,0.015969763,-0.58555794,-0.6579542,9.0,1
0.5012463,-0.18719019,0.15257576,1.9834446,0.13521066,-1.2882276,9.0,1
0.6111392,-0.16361496,0.74212205,2.921402,0.6153682,-0.73460907,9.0,1
0.55390817,-0.13249512,1.0663707,0.72609186,-1.0412285,-0.58768725,9.0,1
0.6804992,-0.07534744,0.5852808,-0.42798963,-1.6597906,-0.6749886,9.0,1
0.63956594,-0.058453955,0.34636053,-0.2512576,-1.0997844,-0.55574775,9.0,1
0.68874675,0.03180745,0.32817993,-0.09581858,-0.3896622,-0.49932125,9.0,1
0.7284004,0.07916571,0.3271188,-0.24806364,-0.52061427,-0.6984109,9.0,1
0.9224083,0.2421869,0.36257696,0.1990897,-0.3119427,-0.56639427,9.0,1
0.93760574,0.24236791,0.2770388,0.5632003,-0.6409198,-1.3350722,9.0,1
1.1516273,0.31951484,0.48125657,1.3702056,-0.046844635,-1.2477708,9.0,1
1.0985622,0.32306498,0.46480075,1.3361368,-0.5376487,-1.463895,9.0,1
1.2376385,0.4644483,0.5821186,1.6353037,-0.18311994,-1.1253359,9.0,1
1.1395155,0.4904254,0.49484223,2.9384363,0.5291315,-1.3893694,9.0,1
1.1568601,0.5640031,0.8016065,3.4111414,0.23848179,-0.98906064,9.0,1
1.1471013,0.6359105,0.65542996,2.8468764,-0.006387905,-0.6984109,9.0,1
0.9554167,0.6389378,0.4770907,2.5296104,0.18311994,-0.085172065,9.0,1
0.6461625,0.24880162,-0.6005031,-0.18524924,-0.30023155,-0.06174975,15.0,1
0.60858023,0.24614787,-0.6224149,0.07346091,0.14798647,0.054297194,15.0,1
0.619832,0.26999605,-0.6987602,-0.069202304,0.046844635,0.009581857,15.0,1
0.599193,0.268209,-0.7023841,0.10220648,0.011711159,-0.10220648,15.0,1
0.5324427,0.28654763,-0.71687764,0.37901568,-0.046844635,-0.49506265,15.0,1
0.50633156,0.3167203,-0.84110796,0.5802347,0.49506265,-0.72076863,15.0,1
0.73489636,0.29370055,-0.6063526,-0.16821483,1.5842005,-0.80913466,15.0,1
0.8267245,0.35383427,-0.34456873,-0.47376963,3.0299964,-0.5195496,15.0,1
1.3719685,0.46390623,-0.00083509757,-0.83681554,3.2982883,0.04790929,15.0,1
1.9400781,0.5560428,0.22332731,-2.357137,3.0896168,1.0678447,15.0,1
2.0245397,0.75031126,0.14412424,-2.3432965,3.258896,1.439408,15.0,1
1.9636227,0.78040826,0.08194778,-2.6903727,3.2865772,1.9653455,15.0,1
1.7774274,0.7534974,-0.09273222,-1.8780441,3.8135793,1.9664102,15.0,1
1.4118024,0.56131965,-0.12574634,-0.83575094,2.749993,1.7822255,15.0,1
0.84372246,0.4069147,-0.06704531,-2.4998002,2.0867157,1.9525696,15.0,1
0.23756897,0.24571021,-0.09951355,-1.930212,0.47483426,1.4649595,15.0,1
-0.35040003,-0.011511322,-0.62859863,-0.16927949,-0.17140879,0.6238854,15.0,1
-0.67303216,-0.17430459,-0.42260918,1.1998615,-0.54190725,-0.60259235,15.0,1
-0.2344996,-0.14388673,-0.37606013,1.7279283,-1.1956029,-1.3914987,15.0,1
0.009162131,-0.03479541,-0.15259589,3.4334989,-1.210508,-1.5746186,15.0,1
0.49113217,0.27211636,0.19794399,2.6839848,-2.2219262,-1.750286,15.0,1
1.016036,0.43004936,-0.0034840424,0.65369564,-3.46118,-0.9730909,15.0,1
0.9369028,0.43609905,-0.2666662,1.0742327,-3.7241488,-1.228607,15.0,1
1.7307665,0.6843921,0.30695772,2.1974394,-2.2432194,-1.810971,15.0,1
2.320146,0.8495232,0.22519572,4.5801277,-1.6938595,-2.5019295,15.0,1
2.048369,0.9607069,-0.27583405,-0.6973463,-2.9714406,0.64837235,15.0,1
1.7008688,0.63048136,1.446478,0.83894485,0.1298874,-0.07665486,15.0,1
1.3732393,0.61540854,0.82537615,-1.2552234,1.2392535,0.26190412,15.0,1
1.5438235,0.7256528,1.1885813,-2.0590348,1.5937823,0.89750063,15.0,1
1.7080349,0.9555546,0.5967567,-2.8521996,3.073647,1.058263,15.0,1
2.035287,1.1884023,0.53331614,-3.0640652,3.607037,1.1721805,15.0,1
2.169208,1.1312296,0.3566106,-3.546352,4.156397,1.8918846,15.0,1
1.9836534,1.0289168,0.1470241,-2.4018524,3.7497003,1.7108939,15.0,1
0.9634449,0.71754223,-0.33919135,-2.5636792,2.540257,1.6597906,15.0,1
0.4051334,0.35070556,-0.43671292,-1.768385,1.1349177,1.3542359,15.0,1
-0.056675542,-0.0055325213,-0.8127721,-0.2597748,-0.20547761,0.28213248,15.0,1
-0.5753497,-0.1789867,-0.5506453,0.6302733,-0.77506584,0.12669346,15.0,1
-0.5111477,-0.12732843,-0.2846208,1.1200126,-1.6214632,-0.79848814,15.0,1
0.013952451,-0.0556537,-0.31184766,1.4074684,-2.4199514,-1.2360597,15.0,1
0.34296748,0.21516308,-0.20996287,2.2464132,-2.1324956,-1.6203985,15.0,1
1.032693,0.5467552,-0.25804037,2.204892,-3.4846022,-1.9536343,15.0,1
1.5412204,0.8009246,0.42023697,4.762183,-2.3134863,-3.2557023,15.0,1
2.1421297,1.2752044,-0.17405559,4.601421,-2.9959276,-1.7002474,15.0,1
1.9917958,1.2792104,0.5130219,1.771579,-1.3531712,-0.052167892,15.0,1
2.2008126,0.8501436,1.7147214,1.0029011,-1.7194111,-0.21825342,15.0,1
1.1217295,0.8175462,0.83448946,0.41734314,-0.6749886,-0.30555478,15.0,1
1.0088985,0.851267,1.5429711,-1.8397167,1.344654,0.48015752,15.0,1
1.6463423,0.9067503,1.4407434,-3.341939,2.1175904,0.8027467,15.0,1
1.8663635,1.1507328,0.96968234,-2.985281,3.5090892,1.0146122,15.0,1
2.1379943,1.227648,0.6282251,-2.6403341,3.85723,1.5384204,15.0,1
0.8609722,0.16505148,0.1299793,-0.75607663,0.037926003,-0.4874879,12.0,1
0.88149625,0.23156624,0.2068868,-0.8098153,-0.19303341,-0.5992588,12.0,1
0.8949852,0.14765522,0.5594436,2.2274241,1.5331321,0.30511847,12.0,1
1.0070108,0.21017356,0.4271821,-2.7898738,1.2798499,0.0034208454,12.0,1
1.3222592,0.3800259,1.4812963,-2.9407926,2.4659758,0.6459464,12.0,1
1.3949021,0.46682912,1.6096401,-2.5051408,2.7717574,1.2283627,12.0,1
1.5632901,0.451058,0.80398256,-2.6212227,2.9543362,1.9936198,12.0,1
1.783845,0.21440458,0.8019656,-3.0977151,2.4142442,2.5709572,12.0,1
1.5343127,0.13611326,0.6162847,-0.9236108,2.2829955,2.1986437,12.0,1
1.0685236,0.18749472,-0.0015897499,-0.35103807,1.3163098,1.243198,12.0,1
0.3542499,0.0027897237,-0.39746237,0.5426578,-0.4230329,-0.41380012,12.0,1
-0.12496966,-0.002245761,-0.2862795,0.6315474,-1.4559362,-0.9159662,12.0,1
-0.23266181,-0.0031478964,-0.2987523,-0.1511106,-1.8749025,-1.3631545,12.0,1
0.013306016,-0.10548373,0.054786038,0.37540287,-2.6549773,-1.8473263,12.0,1
0.29671916,-0.115297094,0.066170946,0.6318092,-2.6438072,-2.2860672,12.0,1
0.72310156,-0.017600255,0.2230783,0.66888,-3.6183991,-3.385066,12.0,1
1.1871055,0.13800083,0.53300005,0.9451307,-1.8927921,-2.1863565,12.0,1
1.7152109,0.050991707,0.5547365,2.604293,-1.5104603,-1.9359716,12.0,1
1.861943,-0.06833243,1.0449207,2.94643,-0.82482517,-0.10307915,12.0,1
1.8286701,-0.13679607,0.033559047,2.0449674,0.1629614,-0.12198106,12.0,1
1.2392771,-0.1340389,0.90546024,-1.6464388,-1.9264945,0.35318482,12.0,1
1.3386269,0.092210285,0.6673684,0.24671975,1.8265917,0.14844026,12.0,1
0.73872423,0.055789687,2.405828,-0.473822,0.7301934,0.21139428,12.0,1
1.0391793,0.035354696,0.0012306197,-2.3167675,1.0136,0.47548005,12.0,1
1.0382121,-0.0033001676,1.282028,-1.0248573,2.3920085,1.1698244,12.0,1
1.4168637,-0.02110824,1.0374545,-1.7580353,2.558548,1.4239793,12.0,1
1.5000794,-0.043400176,0.9277627,-2.0572371,2.36815,1.68529,12.0,1
1.5563662,0.04018907,0.9442061,-1.1607661,2.3260179,1.8522133,12.0,1
1.480941,-0.033419225,0.5319045,-1.4158983,1.9093379,1.9946146,12.0,1
1.2399724,-0.14502159,0.43852773,-0.92776465,1.7383305,2.0969434,12.0,1
0.89272976,-0.21684285,0.24729231,-1.2284325,1.3937676,1.8882717,12.0,1
0.5288006,-0.22366151,0.15374893,-0.8871509,0.28953266,0.3972893,12.0,1
0.18026231,-0.1747365,0.21723934,0.1627345,-0.27091,0.056478854,12.0,1
-0.37538114,-0.143677,-0.28491098,0.6255435,-0.44668213,-0.2804395,12.0,1
-0.16459179,-0.14764372,-0.12308784,0.94289666,-1.375651,-0.67638487,12.0,1
-0.18929611,-0.18998182,-0.06870018,0.29749137,-2.0797691,-1.2083962,12.0,1
-0.023892218,-0.23935983,0.24166784,-2.5363822,-2.2754555,-1.4006616,12.0,1
0.35350388,-0.22714078,0.37141153,1.2260938,-3.6952808,-3.6359746,12.0,1
0.6729402,-0.041535567,0.3167816,0.2962522,-1.8967365,-3.1095834,12.0,1
0.9753517,-0.08042219,-0.090858996,0.93191856,-1.6572076,-3.0832987,12.0,1
1.4944799,-0.1393617,0.99843377,1.9985765,-1.1860559,-2.381275,12.0,1
1.9545248,-0.29890746,0.9615296,0.58044416,-0.5218011,-0.65818113,12.0,1
1.6821315,-0.46953458,0.20666464,0.022567106,-1.2582078,-0.8146499,12.0,1
1.4920713,-0.1835443,0.86372644,2.418782,0.045396015,-0.7856076,12.0,1
1.0398009,-0.07162494,0.29193842,0.75239396,0.099902645,0.15833627,12.0,1
1.2544161,-0.06811504,0.10674788,-0.9626713,-0.15707964,0.28841567,12.0,1
1.1846653,-0.09364585,0.9755319,0.62999403,0.1817935,0.24708626,12.0,1
1.017439,0.007707414,0.17963792,-0.086638145,0.14023721,0.20207421,12.0,1
0.9951145,0.053183835,0.25111252,0.34747759,0.6280044,0.32271138,12.0,1
0.96213484,0.06107896,0.36982468,0.46588072,1.3927203,0.5484348,12.0,1
-0.037203267,-0.5311111,-0.80837,0.017431026,0.025110325,-0.026479848,3.0,1
-0.05769834,-0.54879916,-0.79187405,0.04841484,0.09276482,-0.08552001,3.0,1
-0.065181024,-0.55212426,-0.8062712,0.07400688,0.048292525,-0.1132648,3.0,1
-0.057913154,-0.5491029,-0.7994138,0.04147121,0.014265394,-0.093457654,3.0,1
-0.05386738,-0.5387094,-0.84111816,0.06856722,-0.039160263,-0.058837906,3.0,1
-0.065476224,-0.55700314,-0.8415947,0.057616748,-0.02749783,-0.0414263,3.0,1
-0.018577507,-0.5425396,-0.8292662,0.027062465,-0.03306682,-0.05618741,3.0,1
-0.023063067,-0.54454947,-0.78675944,0.07904853,-0.011434192,-0.06753849,3.0,1
-0.004462468,-0.5336604,-0.80702555,0.052119274,0.010832969,-0.07058072,3.0,1
-0.02065885,-0.55629486,-0.83085144,0.034180593,-0.017664237,-0.056344043,3.0,1
-0.026477296,-0.569795,-0.7938646,0.017164772,-0.019248752,-0.026623748,3.0,1
-0.032532416,-0.56833136,-0.80897444,0.019666538,-0.005867591,-0.027162397,3.0,1
-0.0056008482,-0.5696549,-0.768533,0.022720398,-0.005954736,0.0103511065,3.0,1
-0.01999802,-0.5757198,-0.78474605,0.010992708,-0.0017146473,0.004887816,3.0,1
-0.005545159,-0.57067776,-0.79703295,0.057812557,-0.010730289,0.007444215,3.0,1
-0.01575653,-0.5759221,-0.79046905,0.01598822,0.0045807115,-0.020908589,3.0,1
-0.012914029,-0.5779611,-0.7929245,-0.0037209578,0.0022919932,-0.014263149,3.0,1
-0.023948258,-0.58217794,-0.79641056,0.008814105,-0.016058877,-0.047635794,3.0,1
-0.019836945,-0.58284867,-0.7862493,-0.0040482203,-0.0047088414,-0.010439826,3.0,1
-0.023147756,-0.589407,-0.77344537,0.011642609,-0.0014787548,7.14527e-05,3.0,1
-0.022172023,-0.5892734,-0.7775534,0.0030221394,-0.008992922,-0.006290806,3.0,1
-0.013071884,-0.5813906,-0.79341173,-0.00962958,-0.0034894296,-0.004046131,3.0,1
-0.014108134,-0.5831116,-0.7863848,0.031810578,-0.013832746,0.0078518465,3.0,1
-0.0038703992,-0.5762633,-0.7933092,0.011411199,-0.0032421774,0.004606897,3.0,1
-0.015865767,-0.5839782,-0.79224926,0.011230758,0.00024653017,0.015596557,3.0,1
-0.016506005,-0.582549,-0.7914727,-0.011347201,-0.0048766076,-0.01503888,3.0,1
-0.007253849,-0.5861249,-0.77768415,0.0017993887,0.0065714833,-0.0024005445,3.0,1
-0.01728184,-0.58649176,-0.7921001,-0.017037882,-0.0016719435,-0.01129074,3.0,1
-0.020555655,-0.5868174,-0.77928746,0.0028238161,-0.015396746,-0.016882531,3.0,1
-0.025549188,-0.5899059,-0.77976143,-0.0109375445,-0.0066922214,-0.038489714,3.0,1
-0.024514075,-0.59236896,-0.78993183,-0.009830554,-0.0008932005,-0.04020977,3.0,1
-0.026416376,-0.5905384,-0.778798,0.0030028853,-0.0110475775,-0.023680758,3.0,1
-0.01720504,-0.5885049,-0.78926885,-0.023066767,-0.0006665664,-0.020267997,3.0,1
-0.017852535,-0.5879262,-0.7890597,-0.0045314115,0.0030957633,0.0011655162,3.0,1
-0.0036650847,-0.57953835,-0.7923748,-0.011883975,0.0011951467,-0.0044249906,3.0,1
-0.010520933,-0.5825617,-0.7884594,-0.009239766,0.0031285314,-0.012754392,3.0,1
-0.015162768,-0.58618397,-0.78373593,0.009226589,-0.012123298,-0.016372561,3.0,1
-0.020204028,-0.5886625,-0.79398197,-0.022448799,-0.003060565,-0.007851245,3.0,1
-0.02063589,-0.58574873,-0.7843942,-0.013293573,-0.0052632894,-0.0010605329,3.0,1
-0.011640253,-0.5798149,-0.78680456,-0.007861223,-0.004867673,-0.015160691,3.0,1
-0.015211048,-0.5844651,-0.7808395,0.007556409,-0.022403944,-0.011730215,3.0,1
-0.013633056,-0.5829965,-0.7894566,-0.024333535,-0.016686779,-0.00932659,3.0,1
-0.01836427,-0.5835931,-0.7831568,-0.019104218,0.029907525,-0.0011546905,3.0,1
-0.011880798,-0.5732373,-0.78417873,-0.005942101,0.01305137,-0.0077699427,3.0,1
-0.021637656,-0.5878858,-0.79000264,-0.012553063,0.005681692,0.012076072,3.0,1
-0.01503202,-0.5831911,-0.79795086,-0.013740609,0.010456631,0.012499077,3.0,1
-0.007372727,-0.5755962,-0.7997753,-0.020840177,0.02732409,0.011237122,3.0,1
-0.0098868925,-0.5773717,-0.781222,-0.016412387,-0.01196387,0.0040098536,3.0,1
-0.013504624,-0.58217305,-0.79208356,-0.020523325,-0.07685351,-0.041209936,3.0,1
-0.014963041,-0.57474554,-0.79380524,-0.014364752,-0.040851615,-0.0071928627,3.0,1
0.67414963,0.75056165,0.057677545,0.16954048,-0.34770945,-0.041439693,10.0,1
0.7641853,0.8160609,0.1180436,0.7735449,0.44185972,0.1592864,10.0,1
0.8349204,0.87143075,0.12043909,1.4006808,0.85956925,0.45999506,10.0,1
0.81763875,0.9070549,0.25236148,0.73306483,0.66217697,0.40794936,10.0,1
0.88344604,0.9089371,0.13713896,0.6586486,0.10334532,0.638655,10.0,1
0.76942116,0.8618147,0.23935744,0.24319585,-0.2912904,0.30674928,10.0,1
0.74659574,0.9137622,0.40313977,-0.73091155,0.68510175,-0.22496937,10.0,1
0.8044294,0.96310914,0.37456512,-2.1592777,1.3648099,-0.37273663,10.0,1
0.8609969,1.0928072,0.27248353,-2.9935315,1.8573977,-0.6241389,10.0,1
0.9030889,1.0884612,0.042551808,-2.9903355,1.1486611,-0.46282747,10.0,1
0.7613108,0.8474418,-0.012886408,-1.9413552,1.0763136,-0.56570154,10.0,1
0.6853057,0.5216908,0.18275574,-1.7386509,0.5165889,-0.107486024,10.0,1
0.5189911,0.40557855,0.19818947,-0.7526733,0.53579223,-0.109768756,10.0,1
0.4953785,0.29213554,0.4039268,-0.34361213,0.45659712,-0.034591567,10.0,1
0.50448126,0.17687882,0.5570663,-0.49487954,-0.09613105,0.72600657,10.0,1
0.27619222,0.3038734,0.4953999,-0.03225086,-0.48481223,0.53334606,10.0,1
0.14413288,0.25972816,0.5391688,-0.11123252,-0.47126573,0.009692949,10.0,1
0.2261267,0.31691164,0.43393874,0.29204577,-0.39400584,-0.30577722,10.0,1
0.39360487,0.36454743,0.49721366,-0.17895286,-1.0973835,-0.23836124,10.0,1
0.5564631,0.46591038,0.36611253,-0.12401568,-1.9119614,-0.29208103,10.0,1
0.7080285,0.5516685,0.3968773,0.35930958,-1.435451,-0.7329479,10.0,1
0.87619114,0.5801747,0.39263394,0.12647341,-1.7787293,-0.6713148,10.0,1
0.8495671,0.67517257,0.30335099,0.19358502,-1.5417395,-0.95528364,10.0,1
0.87646496,0.8336507,0.19784726,0.92739946,-1.2277874,-1.6341609,10.0,1
1.0571182,0.97724235,0.35933673,1.9737926,0.10796009,-1.7227299,10.0,1
1.2241172,0.85195893,0.36991104,1.208781,-0.8541413,-0.7655145,10.0,1
1.0188934,0.7931328,0.3046856,1.4250295,-0.8803411,-0.34351802,10.0,1
0.8460765,0.8087034,0.54457575,0.79241526,-0.020955252,-0.36604068,10.0,1
0.8197263,0.7898134,0.4237751,0.7662402,0.7784389,-0.098050855,10.0,1
0.73379695,0.8168138,0.5006015,-0.27041334,0.118827075,-0.03793955,10.0,1
0.6831155,0.82235765,0.09538921,0.18004094,0.4711857,-0.12742169,10.0,1
0.69273174,0.89856815,0.28305784,0.47953218,1.3741884,-0.3050163,10.0,1
0.76483566,0.98887765,0.4959817,-0.63138545,0.69879717,-0.23851345,10.0,1
0.65707326,1.0973586,0.41066843,-0.997684,1.608201,-0.58289796,10.0,1
0.7385537,1.0576279,0.21937235,-0.50857586,2.2853787,-0.62109524,10.0,1
0.8278025,1.0291216,0.35704395,-2.4461384,-0.34875152,0.47125643,10.0,1
0.70775473,1.0557799,0.2517113,-1.7013667,-0.46620438,0.96036464,10.0,1
0.87872344,0.9330972,0.51432425,-2.3277416,-1.4811522,1.694331,10.0,1
0.8456317,0.83905745,0.5188414,-2.6185586,-0.53542566,2.3564684,10.0,1
0.5416112,0.7582615,0.13388798,-1.2731307,0.3294682,1.4913222,10.0,1
0.29727244,0.5410257,0.3568386,-1.0066627,0.8908304,-0.10916002,10.0,1
0.503968,0.17674196,0.33781165,-0.52531564,1.2597128,-0.08541986,10.0,1
0.43357515,0.0974516,0.3528005,-0.53627264,0.18968584,0.19154868,10.0,1
0.34963074,0.09118913,0.4341783,-0.037729356,0.31145576,-0.31810385,10.0,1
0.42231646,0.0036172785,0.40088114,0.12403852,0.25325033,-0.3147559,10.0,1
0.3891561,0.035887796,0.38045114,0.31974265,0.33973974,-0.26134053,10.0,1
0.46351862,0.1643881,0.2807308,0.7283473,-0.123224095,-0.18433721,10.0,1
0.54869497,0.40407285,0.24979493,1.3328083,-0.6722307,-0.2411005,10.0,1
0.60608375,0.56850535,0.4894112,0.77202314,-1.216325,-0.55687505,10.0,1
0.7559039,0.72246623,0.3744967,2.1672137,-0.091218576,-0.9131296,10.0,1
-0.14032896,-0.8364919,-0.40940562,0.04152138,0.08506735,0.024609143,11.0,1
-0.044796474,-0.8988522,-0.38934988,0.038152896,0.080808744,0.024574235,11.0,1
-0.08102266,-0.84656763,-0.45347232,0.03541273,0.07702138,0.024312437,11.0,1
-0.0030885204,-0.81789666,-0.45530438,0.032375857,0.07386234,0.024033183,11.0,1
0.06952666,-0.85763085,-0.42953318,0.02984513,0.07197738,0.021624628,11.0,1
-0.044775404,-0.82760173,-0.53037405,0.027052604,0.07030186,0.017749999,11.0,1
-0.051718585,-0.83511287,-0.46640772,0.024242623,0.06773623,0.01308997,11.0,1
-0.048403095,-0.8280423,-0.5162426,0.021380283,0.06391396,0.009459685,11.0,1
-0.07789296,-0.8144509,-0.5701983,0.018936822,0.059812434,0.0062831854,11.0,1
-0.011359051,-0.7987038,-0.6338228,0.0146084055,0.056374136,0.0019896755,11.0,1
0.01223437,-0.8049038,-0.49340472,0.007225663,0.0538085,-0.0022340214,11.0,1
-0.015948255,-0.81337833,-0.51037866,0.00012217305,0.05050983,-0.0051487214,11.0,1
-0.004577714,-0.8326516,-0.4460302,-0.0043458696,0.04761258,-0.008115781,11.0,1
-0.045153685,-0.828571,-0.50396407,-0.0069987704,0.04420919,-0.009302605,11.0,1
0.035920687,-0.83987457,-0.5080228,-0.008185594,0.04548328,-0.012007865,11.0,1
0.015250106,-0.8349778,-0.52839553,-0.0085870195,0.04852015,-0.012269665,11.0,1
0.008429505,-0.8349185,-0.47066656,-0.0067020645,0.051330134,-0.011571533,11.0,1
-0.038039077,-0.8120011,-0.49465457,-0.004537856,0.05445427,-0.009704031,11.0,1
-0.012856863,-0.85506046,-0.46067983,-0.003281219,0.058433622,-0.009826204,11.0,1
-0.031567074,-0.84937847,-0.4772994,-0.0024085543,0.060999256,-0.009285152,11.0,1
-0.08390336,-0.8034021,-0.54358816,-0.002268928,0.060370937,-0.006405358,11.0,1
-0.0992004,-0.7928112,-0.576224,-0.003577925,0.05784021,-0.004415683,11.0,1
0.070585854,-0.8326583,-0.520826,-0.005986479,0.056478854,-0.006143559,11.0,1
0.00028443118,-0.82460815,-0.50604427,-0.009005899,0.054628804,-0.0084823,11.0,1
-0.0034045547,-0.803949,-0.49553078,-0.014643312,0.05284857,-0.008848819,11.0,1
-0.039249584,-0.8076083,-0.4786354,-0.022270402,0.051714107,-0.007836528,11.0,1
0.0025713728,-0.81693614,-0.46467143,-0.022270402,0.051714107,-0.007836528,11.0,1
-0.077649705,-0.8263606,-0.503695,-0.02857104,0.051138148,-0.007452556,11.0,1
-0.05577628,-0.8240449,-0.4903699,-0.03143338,0.04979424,-0.0072954763,11.0,1
-0.07519517,-0.8518053,-0.5129309,-0.02932153,0.048537605,-0.008080875,11.0,1
-0.08172656,-0.8323126,-0.46668735,-0.027715828,0.04675737,-0.009250245,11.0,1
-0.04315405,-0.8124264,-0.5662086,-0.026825711,0.045029495,-0.009285152,11.0,1
-0.09541085,-0.8270358,-0.49176708,-0.027104963,0.04447099,-0.008395034,11.0,1
0.042190623,-0.905103,-0.5015201,-0.027017696,0.045256387,-0.007749262,11.0,1
0.13252099,-0.93138087,-0.35460618,-0.02687807,0.048572514,-0.008953539,11.0,1
0.055320423,-0.8646315,-0.5465628,-0.024102997,0.053023104,-0.013177236,11.0,1
0.043404963,-0.83101875,-0.58744895,-0.022549653,0.055065136,-0.016126841,11.0,1
-0.05321736,-0.7530607,-0.58172685,-0.02417281,0.05401794,-0.013404129,11.0,1
0.0127026765,-0.7323624,-0.48303017,-0.024190264,0.054314647,-0.008412487,11.0,1
-0.0997252,-0.73079175,-0.39748824,-0.023980824,0.057560958,-0.003281219,11.0,1
0.000341892,-0.83273876,-0.30775836,-0.020804325,0.06106907,0.0020594886,11.0,1
-0.019401653,-0.8647464,-0.36037812,-0.016667895,0.06543239,0.0068416907,11.0,1
0.023409545,-0.896074,-0.36309698,-0.013316862,0.07002261,0.012007865,11.0,1
0.027567795,-0.8915146,-0.44098896,-0.011309734,0.07403687,0.017034413,11.0,1
-0.0020906169,-0.87537086,-0.41553956,-0.0056897732,0.07731809,0.021188296,11.0,1
-0.028401935,-0.8552222,-0.49998206,0.0032463125,0.080215335,0.025115287,11.0,1
0.024158454,-0.8401254,-0.5202629,0.011257374,0.0829555,0.02846632,11.0,1
0.0065189325,-0.81721383,-0.49725467,0.014294246,0.08421214,0.030997047,11.0,1
-0.018285954,-0.83252037,-0.46861616,0.014992379,0.08461356,0.032724924,11.0,1
0.0044790725,-0.85982674,-0.36347526,0.017208947,0.08543386,0.034679692,11.0,1
0.52929676,-0.6497232,0.47402224,0.52092844,-0.6077585,-0.3998724,7.0,1
0.50929844,-0.69525605,0.5159074,0.54300684,-0.028029988,-0.26666886,7.0,1
0.46237975,-0.6600785,0.44362354,0.3160442,0.0988729,0.0021467549,7.0,1
0.62284005,-0.7169715,0.6537694,0.09904744,0.5087635,-0.15676548,7.0,1
0.42446512,-0.7350218,0.4970593,0.23005185,0.7616617,0.6483375,7.0,1
0.4881011,-0.73674476,0.59219235,-0.26251498,0.64571947,1.104008,7.0,1
0.39568684,-0.84459,0.6561099,-0.68263316,0.42891467,1.142126,7.0,1
0.5380355,-0.9444148,0.79772407,-0.5579294,0.41891393,1.3130461,7.0,1
0.5071072,-0.9495758,0.62290806,-0.79983205,0.29497808,1.314966,7.0,1
0.28547984,-0.9815097,0.7800606,-1.0981437,0.11665781,1.1749905,7.0,1
0.42629433,-0.9476825,0.72393954,-1.1189655,0.09847148,1.2451876,7.0,1
0.6098731,-0.96332437,0.6181082,-1.048908,0.33227578,0.866364,7.0,1
0.21586314,-0.91215736,0.6907559,-1.3639922,0.3485597,0.97773343,7.0,1
0.09474526,-0.8811054,0.6040513,0.06379178,0.041905355,0.88613856,7.0,1
0.49097985,-0.7061554,0.3478842,-1.2255528,0.14222687,0.6864729,7.0,1
0.23032412,-0.8588193,0.45667,-0.20474458,0.11285299,1.0910926,7.0,1
-0.15544882,-0.82853556,0.32307357,-0.03635521,-0.04017748,0.30792844,7.0,1
0.068320945,-0.67049617,0.24985889,-0.699336,0.2556733,0.85482734,7.0,1
-0.27069896,-0.67074907,0.04934833,1.0882652,-0.020018926,0.50928706,7.0,1
-0.27196506,-0.51676834,-0.0063704913,-0.17071065,-0.21989404,0.34510395,7.0,1
-0.13581157,-0.7527657,-0.043472,0.0049043754,-0.19282398,-0.06544985,7.0,1
-0.3634695,-0.70546305,0.28295252,0.614862,-0.10150835,-0.23628268,7.0,1
-0.33044198,-0.5998261,0.12830336,0.46663123,-0.056618482,-0.68495446,7.0,1
-0.2937992,-0.7086023,0.18653896,-0.37487927,-0.15899949,-0.80808747,7.0,1
-0.25466263,-0.7616291,0.14509246,0.5512797,-0.16470672,-0.45312238,7.0,1
-0.23058844,-0.738526,0.11347846,0.6404835,-0.45844564,-0.57690114,7.0,1
-0.08574785,-0.7334369,0.29570305,0.3421718,-0.5340882,-1.0638131,7.0,1
0.04352946,-0.78465456,0.46300417,-0.018570304,-0.21364576,-0.63170445,7.0,1
-0.09482858,-0.8619307,0.5028322,0.45094073,-0.23095942,-1.2119915,7.0,1
0.1277546,-0.8029357,0.6102437,0.98605865,-0.4002738,-0.51326644,7.0,1
0.16850105,-0.895033,0.44656554,0.752202,-0.58407444,-0.62001073,7.0,1
0.21367677,-0.9632333,0.12911355,-0.4426504,-0.4799481,-1.1136248,7.0,1
0.2925063,-0.9778341,0.44067773,1.5708487,-0.32951817,-0.19097392,7.0,1
0.28240567,-0.9435913,0.9164305,0.9308539,-0.5119574,-0.8613898,7.0,1
0.2930723,-0.9722643,0.56380963,-0.39058724,-0.4902281,-1.0171779,7.0,1
0.39299193,-0.9578741,0.49742317,0.6640454,-0.35260886,-0.44652504,7.0,1
0.4679745,-0.7992391,0.4926587,-0.12849113,-0.3048043,-0.6157871,7.0,1
0.4396386,-0.8293246,0.8033897,-0.71518356,0.32258922,-0.9195267,7.0,1
0.59482986,-0.7673005,0.54409385,1.0851235,-0.45444882,-0.35664058,7.0,1
0.30532488,-0.7014197,0.7003873,0.7167369,-0.44834018,-0.40496874,7.0,1
0.59029424,-0.6616175,0.32141584,-0.47907543,0.08365363,-0.4571192,7.0,1
0.4531046,-0.8932862,0.7914493,-0.13395402,-0.039776053,-0.44258058,7.0,1
0.36900967,-0.8011325,0.6312303,0.28834584,-0.30024898,0.3640757,7.0,1
0.62142366,-0.727392,0.44820705,-0.14824827,-0.0935671,0.15074408,7.0,1
0.5290506,-0.72436476,0.53578216,-0.50913,0.18882717,-0.1423316,7.0,1
0.47927126,-0.7063431,0.6475923,-0.39296088,0.20771164,0.18598229,7.0,1
0.48302928,-0.7341111,0.59360397,-0.21879448,0.3237062,0.42357394,7.0,1
0.45823774,-0.7493985,0.4990972,0.027820548,0.39516,0.5844584,7.0,1
0.43212852,-0.8781894,0.6222252,0.021519909,0.111927964,0.5799729,7.0,1
0.4272673,-0.9330319,0.6258319,0.10920525,0.28902653,1.0143853,7.0,1
0.568983,0.78563046,0.12737632,-0.52382565,0.79463094,0.3591364,10.0,1
0.76315176,0.7408809,0.19431438,-0.704729,0.16708037,0.15299556,10.0,1
0.5672783,0.7864924,0.1175668,-0.19538961,-0.22860323,0.041329395,10.0,1
0.7215205,0.733321,0.035051115,0.11728612,-0.27469736,0.14817846,10.0,1
0.6742771,0.75567234,0.1651549,0.1643402,-1.0995574,0.35044464,10.0,1
0.5636037,0.8427638,0.3748793,-0.68704885,-0.0019198621,-0.24277529,10.0,1
0.49425998,0.8853652,0.38373786,-0.9720262,-0.1829105,-0.22916172,10.0,1
0.7495987,0.8237012,0.011495041,-0.11203268,0.37576938,-0.1115789,10.0,1
0.6709434,0.801618,0.06659233,0.9462826,0.5462008,0.035342917,10.0,1
0.8666426,1.0979991,0.42965674,0.44846234,0.23446754,-0.16210619,10.0,1
0.8499435,1.1712444,0.8062436,0.03693117,0.8017868,0.09937905,10.0,1
1.0246723,1.2003647,0.77928394,-0.4469439,2.0894907,-0.38631117,10.0,1
0.72693235,1.2444457,0.5874749,-2.350051,1.8338872,-0.7910879,10.0,1
0.89363766,1.155257,0.5605573,-2.7433958,2.341307,-0.88350314,10.0,1
0.93516666,1.0410151,0.0837846,-2.3242724,1.6668767,-0.9618684,10.0,1
0.80336094,0.8251683,0.10404052,-2.3219512,1.7069669,-0.66357416,10.0,1
0.76284534,0.631351,0.20553648,-2.4163735,0.7394262,-0.083531454,10.0,1
0.53455245,0.46423188,0.07643441,-1.8117739,1.2804608,-0.11217231,10.0,1
0.21489587,0.30391327,0.124910295,-1.1723377,0.8381071,0.0667763,10.0,1
0.22372761,0.137341,0.06166889,-0.38575268,0.8443205,0.027331855,10.0,1
-0.047449246,0.16735183,0.061077047,0.29286626,0.39796996,-0.024975661,10.0,1
-0.008075164,0.1692241,0.34922594,0.09320058,-0.005497787,-0.005969026,10.0,1
0.0029218837,0.15420286,0.56000954,0.2984862,-0.76544905,0.17833774,10.0,1
0.16363315,0.22511625,0.0017745823,0.8761204,-1.3161353,0.2006605,10.0,1
0.10608995,0.15086056,0.25617576,1.0544931,-1.5056083,0.36372662,10.0,1
0.37725917,0.32217622,0.27601317,1.2974952,-1.438989,0.4833864,10.0,1
0.47169986,0.5637703,0.34548044,1.1589684,-1.7278236,0.3622431,10.0,1
0.53316194,0.7025919,0.46977687,2.0578303,-1.2985773,0.0323235,10.0,1
0.7058126,0.8949478,0.38870728,2.0036554,-0.6332055,-0.41823325,10.0,1
0.6426459,0.9528588,0.6993817,1.8590374,0.19867083,-0.6483375,10.0,1
0.7157198,1.0182588,0.4838222,1.1290884,-1.3901896,0.4068537,10.0,1
0.996031,0.9624289,0.79118407,1.137309,-1.1394731,0.4113392,10.0,1
0.639181,1.0865176,0.69276893,0.566691,-1.0437592,0.21347122,10.0,1
0.71847695,0.9692543,0.62774336,0.6057863,-0.77232563,0.23794073,10.0,1
0.8194002,0.9112735,0.26953924,1.0175095,-0.39694023,0.51265556,10.0,1
0.823476,0.8691163,0.16206065,1.0009638,-0.9206088,0.7124085,10.0,1
0.7035965,0.8917817,0.29750544,0.7383441,-1.0950894,0.6862984,10.0,1
0.6503983,0.8784739,0.24233823,0.44996333,-0.8111418,0.36264452,10.0,1
0.5394443,0.8055397,0.32933682,0.13217378,-0.8635889,0.011519173,10.0,1
0.71474487,0.7941031,0.13780929,-0.14245377,-0.1370607,0.20938715,10.0,1
0.6486572,0.7753718,0.24749151,-0.47530553,0.21640338,0.11325441,10.0,1
0.62643325,0.7965279,0.34261507,-0.76234233,-0.25623178,0.008866273,10.0,1
0.6255465,0.79071957,0.10159268,-0.4243419,-0.2382898,-0.021816615,10.0,1
0.6280757,0.76380396,0.17266312,-0.3695909,-0.40240312,-0.18484782,10.0,1
0.61492676,0.7901641,0.1686016,0.037227873,0.1550376,-0.057491146,10.0,1
0.7874712,0.7737246,0.18529685,0.2872463,0.4075344,0.1359786,10.0,1
0.6766397,0.7467984,0.30057192,0.46617743,0.6995978,0.037891097,10.0,1
0.82276934,0.8508007,0.41657576,-0.22238985,0.9952042,0.03382448,10.0,1
0.76598555,0.8815651,0.48606318,-0.75576246,1.0091668,-0.1778665,10.0,1
0.9051892,0.8781797,0.317723,-0.34782666,1.4727961,-0.16947147,10.0,1
0.5363523,0.92398864,1.4220157,-1.2892693,0.9082975,0.25607997,20.0,1
0.9119439,1.1620837,2.0284472,-2.7142406,2.8425472,0.55472904,20.0,1
0.9233497,1.7025541,1.7078663,-3.9491334,1.5913222,-0.78677136,20.0,1
1.1529678,1.781122,1.0046344,-4.1979356,1.53413,-0.7932411,20.0,1
1.3123034,1.4252796,0.41365966,-6.0553465,0.8498794,0.24106258,20.0,1
0.8875394,0.98552907,-0.81519014,-3.134525,1.086757,1.8085278,20.0,1
-0.12656796,0.45076042,-1.6092713,-0.63561004,0.2592388,0.9021062,20.0,1
-0.50030226,0.32948294,-1.265373,1.6877463,-1.1280868,-0.95678836,20.0,1
0.17946033,0.5851089,-0.93749917,3.66083,-1.983522,-1.0775527,20.0,1
0.879912,1.3162181,-0.23099491,4.8979216,-3.1768777,-1.9707056,20.0,1
1.4114192,1.8012514,0.8075954,4.1314664,-2.8502977,-1.8473161,20.0,1
1.5682952,1.4585125,2.0289092,3.359805,-1.3058465,-1.0658096,20.0,1
1.2644925,1.0793622,2.739686,1.3814479,-0.818682,-0.76732045,20.0,1
1.3404107,0.60964817,3.4713588,-2.2029831,1.3832331,0.41250208,20.0,1
1.5334537,1.1565897,2.7742639,-4.2467985,2.7685866,1.6872634,20.0,1
1.4736311,1.8405597,1.7660471,-5.300772,3.1930492,1.1773734,20.0,1
1.2641078,1.8577493,0.80453223,-5.1620975,2.2804174,0.52256197,20.0,1
1.0003238,1.2147335,-0.029739687,-4.1957383,-1.2523077,0.41605377,20.0,1
0.6118368,0.6686819,-0.2434609,-2.4180658,-0.4279078,2.067107,20.0,1
-0.113494374,0.31169268,-0.9163688,-0.8098442,-0.33560085,1.4681131,20.0,1
-1.2394484,0.6212847,-1.7438753,3.0517616,-0.41743633,-1.7367228,20.0,1
-0.15106496,0.6446178,-0.78542876,4.3911967,-0.2250042,-1.7556362,20.0,1
0.69335836,1.2161056,-0.26405212,4.950059,-2.3740978,-2.1733358,20.0,1
1.428657,1.8430307,0.6078976,4.5230937,-2.9653852,-1.808968,20.0,1
1.562881,1.5608177,1.4957836,3.72347,-0.5584509,-0.92568034,20.0,1
1.126396,1.5933179,1.5130646,2.8091862,-1.7415586,-1.696598,20.0,1
1.0298998,1.216749,2.540261,0.0031072535,-1.640003,-1.8343754,20.0,1
1.3953393,0.3749197,2.3006735,-0.9123545,0.2606237,0.16181862,20.0,1
1.2276084,0.79105896,2.5132995,-3.2742715,0.28612807,1.1904149,20.0,1
1.1842471,1.4102582,1.8282464,-4.338304,1.0249659,1.7358298,20.0,1
1.1909726,1.9112818,1.2376584,-4.7285686,0.98214185,1.9837695,20.0,1
0.91142875,1.7414331,0.41845813,-4.018711,0.90736204,1.6306795,20.0,1
0.39826065,1.1092536,-0.24625012,-1.8108008,1.2987639,0.83268523,20.0,1
0.13263987,0.4784987,-0.31050357,-1.2460487,0.41968322,0.48666003,20.0,1
0.061411124,0.026870713,-0.37995815,-0.49475485,-0.2581959,0.72503304,20.0,1
-0.208914,-0.021525923,-0.54661536,0.7929145,-0.14341207,0.3398924,20.0,1
-0.15926881,0.18767649,-0.43755394,2.0748749,-0.3924798,-0.3104272,20.0,1
0.13184401,0.66109985,-0.20879407,3.2943258,-1.0961268,-0.9810653,20.0,1
0.61264175,1.124138,0.20705967,3.7209973,-2.4197042,-1.6844276,20.0,1
0.9895873,1.3616544,0.9540744,2.9074006,-1.8890018,-2.2059689,20.0,1
1.3586186,1.2710278,1.2813115,2.9467757,-0.42236397,-1.7219721,20.0,1
1.4147263,0.9565029,1.7991606,1.7815409,-1.6404395,-1.4893975,20.0,1
1.5556753,0.2014571,2.628602,-0.60533124,-0.5271023,-0.07830675,20.0,1
1.7858839,0.23676893,2.5413861,-2.8849323,0.57737774,1.8770593,20.0,1
1.554913,0.99746054,1.6506846,-3.6360815,0.80316514,2.6094227,20.0,1
1.2656548,1.3553029,1.002179,-3.369374,1.2226303,2.4130647,20.0,1
0.86422473,1.197303,0.42886987,-2.4564102,1.0982556,1.6544317,20.0,1
0.58633065,0.8109409,0.14407954,-2.043088,0.6804338,1.3961607,20.0,1
0.2333399,0.47687286,-0.027657434,-1.6587567,0.21428291,0.7157282,20.0,1
-0.27179605,0.34382394,-0.79320276,1.0391407,-0.36851302,-0.61527187,20.0,1
-0.49739543,0.4325499,-1.0158378,-1.5722798,-1.0227281,-0.13259266,10.0,1
-0.44595551,0.39301682,-0.9174696,-1.0277022,-0.7443306,-0.20127137,10.0,1
-0.44424415,0.37799272,-0.9129388,-1.8043563,-0.8992285,-0.5659056,10.0,1
-0.4020133,0.33849317,-0.91034824,-2.0401678,-0.71026176,-0.005375614,10.0,1
-0.3159178,0.2642519,-0.8912684,-2.2584212,-0.5202128,-1.1126125,10.0,1
-0.21506636,0.18439375,-0.9087202,-1.459933,-1.2324642,-0.5579294,10.0,1
-0.22727773,0.1743994,-0.9052783,-0.7487463,-0.6298893,0.049968775,10.0,1
-0.248069,0.12877549,-0.8794707,-0.83550656,-0.29984757,-0.54782397,10.0,1
-0.07208367,0.13618603,-0.8540902,0.23712043,-0.36957347,0.49019316,10.0,1
-0.0556537,0.12541308,-0.8448726,0.08805186,-0.30836478,0.088296205,10.0,1
-0.04923628,0.08468388,-0.82049865,0.026319565,-0.1561197,0.045169123,10.0,1
-0.009421663,0.03662075,-0.73364276,-0.03487168,-0.03741986,0.24478243,10.0,1
-0.009605537,0.03786095,-0.7327186,-0.03487168,0.24682446,0.3256959,10.0,1
-0.039554127,-0.039715976,-0.7407507,-0.026337018,0.6604326,0.4018097,10.0,1
0.054900955,-0.10940448,-0.8427044,0.6805737,1.1757236,0.27246335,10.0,1
-0.0049885586,-0.21260226,-0.78676623,1.7324487,1.1815879,0.25436428,10.0,1
-0.008674672,-0.22010472,-0.77403486,2.0726135,1.1986223,0.41671482,10.0,1
0.044215158,-0.19049034,-0.70624834,2.0401502,1.5233234,0.36081192,10.0,1
0.083572,-0.19905296,-0.56090975,1.703197,1.2736715,0.07122689,10.0,1
0.08327608,-0.20241442,-0.55368215,1.8272376,0.878686,0.153205,10.0,1
0.07266785,-0.21852644,-0.5071072,1.3625088,0.9606467,-0.14062117,10.0,1
0.0705916,-0.23260434,-0.5107838,0.91802573,1.1043745,-0.23804545,10.0,1
0.08796872,-0.2783269,-0.57417554,1.3039703,0.69183105,0.02755875,10.0,1
0.07405936,-0.26176286,-0.6040093,0.63856363,0.6577622,-0.18055432,10.0,1
0.06255953,-0.2693975,-0.60367215,0.28935814,0.17280506,-0.030979594,10.0,1
0.06603113,-0.20818639,-0.6678156,-0.026808258,0.25478315,-0.10976376,10.0,1
0.07931511,-0.19707632,-0.6678712,0.22921409,-0.13327335,-0.017139133,10.0,1
0.08132816,-0.22463742,-0.6419324,0.1903456,-0.55379295,-0.017662732,10.0,1
-0.029017726,-0.17650439,-0.71992207,-0.22537437,-0.76354665,-0.11508701,10.0,1
0.009059659,-0.18522695,-0.73417425,-0.42285836,-1.1542735,-0.006492625,10.0,1
0.0689827,-0.24135467,-0.79093605,-0.7688699,-1.2415749,0.082920596,10.0,1
-0.076240964,-0.14874026,-0.7826904,-0.90460414,-1.5753516,0.49281117,10.0,1
-0.10723437,-0.1598618,-0.7765124,-1.4534404,-1.1414977,-0.103916906,10.0,1
-0.20175555,-0.23967011,-0.79367214,-1.8175335,-0.55169857,-0.30780625,10.0,1
-0.17809221,-0.23403803,-0.75160503,-1.5412654,-0.9434726,0.0967436,10.0,1
-0.17348577,-0.018112615,-0.80472755,-1.4534229,-1.2628679,-0.18324211,10.0,1
-0.25499684,-0.14948341,-0.86074144,-1.4283949,-1.3629451,0.20001473,10.0,1
-0.27796775,-0.1695449,-0.82271194,-2.459518,-1.2367927,-0.80871576,10.0,1
-0.32523218,0.07775984,-0.7715047,-1.143086,-0.8237081,0.30915016,10.0,1
-0.43045354,-0.071578965,-0.9489064,-0.8077209,-0.92485,0.12229522,10.0,1
-0.25487617,0.10694995,-0.92000943,-0.36960837,0.077510074,0.034470253,10.0,1
-0.26098523,0.12091198,-0.9497042,-0.5766742,0.015219271,-0.019809486,10.0,1
-0.45274836,0.044792645,-1.0026438,0.12117821,-0.31374037,0.38632864,10.0,1
-0.57196325,0.18572493,-0.92567503,0.44643778,-0.23069762,0.57690114,10.0,1
-0.5058354,0.20318727,-0.9214517,1.012832,0.4847303,0.6125582,10.0,1
-0.39882803,0.23316269,-1.005199,1.6303295,1.2534082,0.4693714,10.0,1
-0.69118017,0.176083,-0.92472494,2.4591515,1.3843602,0.2931804,10.0,1
-0.69195306,0.22574258,-0.90481865,2.8493547,1.3316513,0.44647267,10.0,1
-0.58024246,0.37216145,-0.8211039,2.3047771,1.6712924,0.15636405,10.0,1
-0.8193677,0.28909698,-0.81280077,1.753829,1.8054209,0.029670598,10.0,1
0.50042164,-0.56685406,-0.2309763,0.45485026,0.7068234,-0.11238175,21.0,2
0.4832284,-0.38669038,-0.23186505,0.8483871,0.8170933,-0.4623377,21.0,2
0.08528912,-0.11052976,0.03337134,0.7595847,1.3822833,-0.98347557,21.0,2
0.5565168,0.05591514,0.18534663,0.30702087,1.3128017,-1.6317083,21.0,2
1.1571425,0.13115437,0.9659215,-0.29443705,1.2618556,-3.3100693,21.0,2
1.642655,0.36320516,0.29225734,-2.4821026,-0.16135569,-2.8583083,21.0,2
2.0947616,0.58793163,0.6934202,-1.2283976,1.9656945,-2.6673517,21.0,2
2.3966448,0.504556,-0.122266136,-0.41193262,2.7387009,-2.8675933,21.0,2
1.5058265,-0.1621612,-0.26765835,0.38549086,1.2967098,-3.3588862,21.0,2
0.07907952,-0.7549626,-0.68969864,1.0430436,-0.03544764,-2.397489,21.0,2
0.38680148,-1.4352952,0.50011617,0.56079173,-0.084596105,-1.5672358,21.0,2
1.8340639,-1.0719645,0.953691,-3.2292604,0.82318455,0.74773395,21.0,2
4.742894,0.41989127,-0.09587533,-1.9486252,-1.0893123,5.2354817,21.0,2
2.9974532,1.0615345,-0.12257163,2.3190014,-3.7417417,5.5627656,21.0,2
0.58176035,1.5740334,1.2134389,4.8811097,-2.1126688,4.077246,21.0,2
-0.04567754,1.1260927,-0.071017765,0.2462485,-2.5516016,2.9567971,21.0,2
-0.14974104,0.65516275,0.4367283,2.1002944,0.882997,2.303154,21.0,2
-0.5030141,0.59160817,0.34221667,0.095870934,0.65027475,0.44512877,21.0,2
0.81298953,0.42980805,0.47238174,-0.05333726,-0.34667474,-1.7884214,21.0,2
3.1654515,0.833504,0.7469804,-1.8472564,1.1000985,-5.5007544,21.0,2
2.5597434,0.3434291,0.22741468,-1.258173,1.7981429,-5.3256454,21.0,2
0.86262226,0.044007342,-0.28310958,-0.23844688,1.5717912,-2.63536,21.0,2
0.63670343,-0.3759136,-0.077642046,-0.39226276,0.71904075,-2.4802873,21.0,2
1.0365553,-1.0813354,-0.2031461,-0.7846128,0.2800381,-2.5632079,21.0,2
2.0102503,-1.7681515,0.3934794,0.5443158,-0.008709193,-0.5452583,21.0,2
3.0196714,-0.8377215,0.2801513,-1.4594792,-1.2661142,3.379324,21.0,2
2.5282903,0.06676663,0.292944,-0.9060877,-2.040255,4.46635,21.0,2
1.0813038,0.7488,0.6198741,0.06380924,-2.6799357,5.3132186,21.0,2
0.58325243,1.1088965,0.08185872,1.4319553,-2.0245993,3.8713322,21.0,2
0.7267264,0.6032392,0.9325636,1.521962,0.03197443,2.8207836,21.0,2
0.79917306,0.41569954,-0.027576417,-0.18577285,-0.39697513,0.9793915,21.0,2
0.31526273,0.52367985,0.21634391,1.541021,1.7270381,-1.1991633,21.0,2
2.2022681,0.8542205,1.3315438,-0.9587443,0.10337585,-6.0146666,21.0,2
2.5245793,0.19538698,0.27151972,-2.4096365,1.0035468,-6.0048404,21.0,2
1.1263149,-0.041865967,-0.2847204,-1.1578864,1.274038,-3.3573852,21.0,2
1.2103293,-0.51746166,0.091768794,-2.003062,0.47417104,-1.6124748,21.0,2
0.7165779,-1.7710629,-1.1129897,0.90668106,2.0263448,-1.0685604,21.0,2
2.206545,-1.8826317,-0.0731668,0.6466096,-0.6794218,0.8343023,21.0,2
3.0084035,-0.7686087,0.6429083,-0.7730761,-0.9226334,4.4974866,21.0,2
2.6109977,0.08737591,-0.20982304,-0.25333455,-3.6147165,4.115713,21.0,2
1.3716803,1.1967485,0.22743861,2.6142414,-2.9995751,4.607233,21.0,2
0.6874998,1.2772089,0.76285493,3.4110715,-0.6566627,4.16823,21.0,2
0.4272357,0.91762096,0.31156608,0.32201326,-0.031712633,2.6765149,21.0,2
0.68499833,0.505437,0.4227509,0.54127896,-0.7096509,-0.35416222,21.0,2
0.51981467,0.77419865,0.20524533,0.78738785,2.3262098,-7.546472,21.0,2
1.760465,0.22151156,0.58566487,-3.2632246,-0.1993166,-5.9662337,21.0,2
1.5529711,-0.12766267,0.4131971,-1.4323918,1.3657899,-3.6759775,21.0,2
0.9039184,0.008844181,-0.20254469,-1.1087728,0.75667006,-3.3965852,21.0,2
0.612817,-0.99964917,-0.83830774,-0.45675266,2.1210113,-2.5779212,21.0,2
2.3511224,-2.333024,-0.16089514,0.2618343,0.47151816,0.3378085,21.0,2
0.76687235,0.57059956,0.04639101,-0.18247417,-0.08283333,-0.45928338,20.0,2
0.63675517,0.6449338,-0.00027868507,-0.32360148,-0.10937978,-0.3109653,20.0,2
0.48065034,0.7206107,0.007128975,-0.36028832,-0.018675024,-0.46490335,20.0,2
0.52697337,1.0746279,0.15956013,-0.052988198,0.30922,-0.8221548,20.0,2
0.4708399,1.1050217,0.051979076,-0.3005108,0.1974491,-1.2414701,20.0,2
0.63022953,1.152856,0.28269583,-0.15744615,-0.39526471,-1.6328428,20.0,2
1.0194684,0.8830706,0.2296212,0.38224456,0.065083325,-2.6548028,20.0,2
1.0440471,0.61929667,0.28472805,0.1953198,0.09234537,-2.3869996,20.0,2
0.92913324,0.37538785,0.16870311,-0.25288075,0.028274333,-1.580605,20.0,2
0.6986539,0.09718256,0.049456544,-0.4207116,-0.05227261,-0.33423054,20.0,2
0.6608974,0.122257516,0.16442132,0.65983915,0.98019433,0.49998447,20.0,2
1.2841474,0.8221019,0.20847753,1.3294871,1.6517621,1.1225958,20.0,2
2.0077412,1.2976525,-0.05666309,1.3825625,2.866267,1.7052215,20.0,2
1.8227756,2.0343714,-0.06943856,-0.5815437,2.5744305,3.2235708,20.0,2
1.2305871,1.8507696,-0.27200046,-2.5410948,-0.8393463,4.9089828,20.0,2
0.8005722,1.4051015,-0.12976381,-1.1456342,-0.74068284,4.9893904,20.0,2
0.18762879,0.9447252,-0.069692336,0.6896494,0.9875771,4.1075974,20.0,2
-0.3304142,0.56125546,-0.02652201,0.2993414,0.85524625,2.5653548,20.0,2
-0.27887088,0.3616911,-0.15864842,-0.030717794,0.074141584,0.9100147,20.0,2
-0.008634449,0.47516862,0.015708838,0.14067353,-0.21319197,-0.78616613,20.0,2
0.011395442,1.3100861,0.10767396,0.5375614,-0.38597956,-1.4531611,20.0,2
1.1772645,2.4675965,0.25773293,-0.34163076,-0.6878866,-3.7427537,20.0,2
2.6090622,2.8606782,0.27887756,-0.39421752,-0.78169805,-6.243322,20.0,2
2.1152418,1.1483262,0.59377253,0.7819075,-1.6824974,-7.6111712,20.0,2
1.159553,0.47306076,0.4206718,0.8685107,0.044977136,-4.444219,20.0,2
1.1628168,-0.51370275,0.018632635,-1.3170604,-2.382392,-2.6853635,20.0,2
1.7211866,-0.6838597,-0.13424577,-1.2567068,-0.9841039,-2.2586656,20.0,2
1.8269331,0.9252402,0.22174425,0.8890533,2.070135,1.1749208,20.0,2
2.2718897,2.2606463,-0.010179188,-0.18802431,1.9079416,3.9611642,20.0,2
2.4043753,2.8220253,0.16887358,-0.7846651,0.40421826,5.2692013,20.0,2
1.5234909,2.6631396,-0.070502535,-1.2060574,-1.8470994,6.741788,20.0,2
0.13899203,1.71998,-0.044712193,-0.05136504,-0.37025416,7.0219483,20.0,2
-1.0335433,1.1407778,-0.24859476,1.2677374,1.983462,5.996899,20.0,2
-0.8660345,0.7517027,-0.25169477,-0.4089481,1.4374532,1.2386602,20.0,2
-0.17332393,0.7528539,-0.06273575,0.30079004,-0.297631,-0.98831016,20.0,2
0.45048538,1.3932874,0.11726991,1.0394133,-0.5410695,-3.041428,20.0,2
1.6670988,3.0319538,0.24617183,0.085905105,-1.2135274,-5.3842883,20.0,2
3.0417173,1.8379291,0.2671431,0.49117056,-1.196877,-7.357558,20.0,2
1.5543847,0.7780763,0.5367283,0.6281091,-1.1739259,-6.972084,20.0,2
0.79352945,0.4500889,0.33297408,0.95792395,-0.18069394,-2.0239885,20.0,2
0.63463104,0.112774566,-0.029794404,-1.6623213,-2.2520158,-1.378653,20.0,2
1.1229179,-0.41630188,-0.25949124,-2.0851798,-1.5407592,-1.5214559,20.0,2
1.675605,-0.1652095,-0.07443382,0.033807028,1.1221943,-0.7171034,20.0,2
2.7620802,2.0937045,0.0026748022,1.0081545,1.7625556,2.0928242,20.0,2
3.1739116,3.3016655,0.1820053,-0.5695009,0.053721234,5.1899633,20.0,2
1.5274231,3.1970284,0.0792634,0.26755896,-2.5251772,8.102482,20.0,2
0.17697267,1.6354554,-0.11109575,1.5763116,0.6161536,7.8105755,20.0,2
-1.8454144,1.485198,-0.41095608,1.7654704,2.7472355,5.7138762,20.0,2
-0.90950644,1.278969,-0.24696669,-0.3387684,2.0954947,1.3964728,20.0,2
-0.3776154,1.275781,-0.25644487,0.36363935,-0.39510763,-1.3195736,20.0,2
1.1463045,0.20793545,1.0073364,-3.3884346,-2.020934,-1.3869433,15.0,2
2.2481868,-0.16809979,-0.73022866,-2.0383875,-2.1849778,-2.370384,15.0,2
1.5057968,-0.03005968,0.30636877,-2.3757248,-2.520814,-2.5124013,15.0,2
1.3458909,-0.17058878,0.14539602,-4.2473636,-3.7925656,-2.1360736,15.0,2
0.641103,-0.18105815,0.009874645,-4.998396,-2.6025302,-1.1889532,15.0,2
0.52064216,-0.17684723,-0.48901567,-3.1808102,-1.1793538,-1.7030923,15.0,2
0.40469098,-0.32816076,0.12634777,-2.675171,0.45956263,-0.8136725,15.0,2
0.23013163,-0.33867708,-0.36100346,-2.8153558,-0.56557393,-0.7611381,15.0,2
0.04981472,-0.5289251,-0.16914077,-1.3540788,0.8927883,-0.47696358,15.0,2
1.2768958,-1.0443985,-0.952174,-0.39875537,1.0487684,-1.0422059,15.0,2
2.7279792,-1.3397819,-0.47034377,-0.20074777,-0.8518254,1.317776,15.0,2
4.231589,-0.6898739,-2.1353471,-0.14940019,-2.2531502,3.3186913,15.0,2
2.4183536,-0.0865638,-1.4945564,4.27199,0.090425506,2.8739989,15.0,2
1.2548153,0.16348183,-0.10934702,4.78859,0.3047345,2.479432,15.0,2
0.7800367,0.34153765,-0.25011843,5.522606,1.8943454,1.1894767,15.0,2
0.49950036,0.45789394,0.25061834,4.4246016,0.77850413,1.8673626,15.0,2
0.046017513,0.5476937,-0.1392889,3.6883345,1.4088821,1.7637948,15.0,2
-0.21925333,0.48943132,-0.06471527,3.1599185,1.2183096,1.5426617,15.0,2
-0.21207933,0.327047,-0.19176406,2.4642653,2.1778917,0.7194945,15.0,2
-0.32664958,0.35315433,0.29376662,1.5080342,-0.091106184,0.27544788,15.0,2
0.7277856,0.13415574,0.4522283,-1.6335235,-0.22085397,-0.97298616,15.0,2
1.2937539,0.23039022,0.49745956,-2.6932874,-2.223986,0.65069366,15.0,2
1.4343183,0.04899782,0.007015968,-4.4120703,-1.8679736,-1.2441754,15.0,2
2.415356,-0.69204307,-0.64804435,-4.331506,-2.287411,-2.1842794,15.0,2
1.4021058,-0.44584632,-0.35814673,-2.4451888,-0.9551489,-3.2788627,15.0,2
1.5104252,-0.42021593,-0.12037663,-2.5976608,-1.0248922,-2.6410847,15.0,2
0.65862477,-0.2467742,-0.041611224,-1.1725994,1.0166368,-2.2547035,15.0,2
0.5647931,-0.20163774,0.30956167,-0.72015774,0.92127204,-2.1463013,15.0,2
0.25422496,-0.30326873,-0.14939627,-2.1253748,-0.53220326,-1.412687,15.0,2
0.21472923,-0.32548696,-0.40280142,-0.6474648,0.036023594,-1.3077054,15.0,2
0.4459718,-0.3477846,0.04530404,0.3806563,1.0214015,-0.6667332,15.0,2
1.5285866,-0.46879905,-0.06388496,-0.19706513,-0.09328785,-1.1176391,15.0,2
2.9468074,-0.85333663,0.30237138,-1.2482594,0.5190086,1.107394,15.0,2
3.9016209,-0.5599195,-1.3563995,-2.4575284,-2.322789,2.400107,15.0,2
2.227983,-0.35470194,-0.772221,2.2713017,0.3593284,3.823039,15.0,2
1.4613097,-0.12596086,-0.38221994,1.735887,-1.4940891,2.7680748,15.0,2
0.9511838,0.4393274,-0.71593624,4.6195025,-0.41840777,2.2700102,15.0,2
0.2067307,0.5878895,0.6637733,5.2073646,2.091812,2.232503,15.0,2
0.24158068,0.49612266,-0.23702021,3.2009687,0.3284535,2.1871245,15.0,2
-0.2118294,0.51316553,-0.09893033,3.8181171,1.9829907,1.8128386,15.0,2
-0.14760157,0.23109218,0.040862318,2.7276354,0.86887723,1.4787302,15.0,2
-0.0390207,0.008155609,0.2733757,2.7462757,2.137086,0.47172758,15.0,2
1.239031,-0.14147243,0.43960413,0.30023155,0.8698546,0.16608553,15.0,2
0.6183208,0.20775254,0.76072884,-0.8395732,-1.3857042,0.2823419,15.0,2
0.6437942,0.053328447,0.39867768,-2.5160143,-2.3718677,-1.4710507,15.0,2
1.3145844,-0.01817678,-0.07589715,-2.135166,-1.6012174,-3.6674778,15.0,2
2.0846257,-0.026124572,0.55026317,-3.738024,-2.2189417,-3.357106,15.0,2
1.2061644,0.22435491,-0.7913517,-4.8661876,-2.3457224,-3.5208528,15.0,2
1.4651988,-0.050287813,-0.35385823,-2.1591642,-0.9708394,-3.0610807,15.0,2
0.75222945,-0.12626445,-0.08201386,-1.7696068,-1.1471002,-2.3457575,15.0,2
0.9738924,-0.06852086,-0.0734578,0.71602064,-0.19304086,0.11195824,22.0,2
0.81958944,-0.085049644,-0.025240233,0.6323214,-0.10640259,0.053673115,22.0,2
0.7503258,-0.008394333,0.012505661,0.19023705,-0.18544884,0.4800829,22.0,2
0.8444339,0.05409344,0.146892,0.12282109,0.35283968,1.3120534,22.0,2
1.0703275,0.32515892,0.3998203,-0.05857808,1.9563915,-0.6355524,22.0,2
1.8199412,0.39123994,0.40053898,0.006098631,1.643928,-2.3329737,22.0,2
1.8591928,0.0021799922,0.28531644,-0.3766353,1.0386513,-1.4507834,22.0,2
0.74683523,-0.33934683,0.05418699,-1.1921706,-1.0509381,-0.40621635,22.0,2
0.3566803,-0.50679076,-0.10668651,-1.2332594,-0.54599494,1.1642864,22.0,2
0.42060533,-0.0653383,-0.23227803,0.6358215,0.28093886,1.985148,22.0,2
0.9912425,0.3908293,0.6834792,-0.89298385,1.4018769,0.006497166,22.0,2
1.5099322,0.16035002,0.22269177,-1.7441293,-0.77807224,-0.24825299,22.0,2
1.220353,-0.7454146,-0.055697035,0.19434592,-0.056682367,-0.0820719,22.0,2
2.1082883,-1.0655532,-0.19425833,0.60082006,-1.6684217,1.1440463,22.0,2
1.2954342,-0.10623254,-0.28514963,3.6241896,-0.2589871,0.207832,22.0,2
1.0319998,0.24850364,0.03403075,3.7112372,0.68718594,2.1991138,22.0,2
0.15696582,0.47275463,0.25633115,1.518164,0.8875554,2.3978615,22.0,2
0.3523,0.27307436,0.21636088,0.28245842,-0.056980092,2.1246974,22.0,2
0.55889285,-0.09247564,0.34557986,-0.461552,-0.61134577,1.1023489,22.0,2
0.8384794,-0.33678022,0.4838674,-0.11945027,0.32902157,0.13143738,22.0,2
0.8419358,-0.0868976,0.6632203,-0.28958812,1.197637,-1.7352086,22.0,2
1.4290334,0.30472893,0.62403715,-0.7198024,0.31830344,-3.5540702,22.0,2
1.9756815,0.020693615,0.4730193,-1.2379769,0.17122684,-3.626812,22.0,2
1.0318631,-0.2589614,0.18080513,-1.4540733,0.38424975,-2.787689,22.0,2
0.6162132,-0.3810966,0.18159221,-1.7092801,0.14428264,-1.3215821,22.0,2
0.8171255,-0.79989463,0.15219629,-3.0341632,-0.83717084,0.8784914,22.0,2
0.89792156,-1.0317427,-0.7287923,-0.39931026,-0.6784829,1.775139,22.0,2
1.4666423,-0.8440398,-0.60812867,2.448139,-0.7037896,2.5552163,22.0,2
2.4156625,-0.74616754,0.050320007,2.1424084,-1.9073467,2.995931,22.0,2
1.6886005,-0.15376565,0.21776393,2.9967496,-2.0572517,1.7669212,22.0,2
1.0526695,-0.012843082,0.25763154,3.0063372,-1.557519,0.21985422,22.0,2
0.9643105,0.04481951,0.18357703,2.1736052,-1.1124187,2.1720257,22.0,2
0.23091769,0.30893815,0.12984988,1.6577137,-0.7085533,2.1723301,22.0,2
0.2766029,0.12917458,0.23911794,1.0232731,-0.054449417,1.6333067,22.0,2
0.5435276,-0.32114118,0.41665715,0.077471286,-0.30066875,0.5516077,22.0,2
0.70693344,-0.34276894,0.44680595,0.28793693,-0.123670675,-0.48428494,22.0,2
0.7714745,-0.108833335,0.82375157,-0.338438,1.7238675,-3.7980154,22.0,2
1.7325062,0.32728064,0.83921945,-3.8090668,-0.22966112,-6.8944325,22.0,2
2.2962995,0.22081873,0.17218141,-4.6107535,-0.9598339,-2.9783714,22.0,2
0.39959356,0.47734028,-0.17109066,-2.9624865,1.2850195,-3.1409,22.0,2
0.64345324,0.11445949,-0.29856437,-1.5426424,1.9422494,-2.600507,22.0,2
0.95366776,-0.8215567,-0.508682,-1.6566255,-0.11563209,-1.1371394,22.0,2
1.6161544,-1.1121967,-0.50471234,0.5003809,-0.65570694,1.3397505,22.0,2
2.4201453,-0.28609875,0.022190234,2.1702573,-0.87096274,2.8556204,22.0,2
2.5918672,0.09406371,0.19069503,2.4528568,-1.6557685,3.4608426,22.0,2
1.697156,0.4459595,0.22957022,3.19428,-0.16490574,2.9393198,22.0,2
0.7468353,0.55806786,0.10709284,2.4718792,-1.2883748,1.6532423,22.0,2
0.22958302,0.3921297,0.28955987,1.522121,-0.71391237,2.2678995,22.0,2
0.2196589,0.17872676,0.30759436,0.73184747,0.7138324,2.0951746,22.0,2
0.40982565,0.08379736,0.36043182,-0.025859272,1.1029601,0.6342417,22.0,2
0.7993933,-0.45996636,-0.22194152,-0.30656707,0.35854298,-0.34133404,24.0,2
0.678218,-0.46411404,-0.31743476,-0.2209936,-0.23218115,-0.052394785,24.0,2
0.5642032,-0.48613596,-0.18277432,0.22809708,-0.55833083,0.2184105,24.0,2
1.323509,-0.85051334,-0.15908992,0.53417546,-0.44120178,0.552484,24.0,2
1.8391167,-1.1069984,-0.5452546,1.7299529,-0.88681924,1.5234455,24.0,2
1.4618441,-0.99128854,0.050295472,1.5853872,1.0301981,1.2766385,24.0,2
0.5078427,-0.30837798,-0.11319593,0.23867378,0.015376351,1.5290481,24.0,2
-0.17487058,0.14646193,0.023976494,1.6745911,-0.044505894,1.3877985,24.0,2
0.21989974,-0.038550477,0.11581902,0.27462757,1.4245901,0.5367411,24.0,2
0.5500621,0.12057008,-0.21106705,-0.73773324,0.6713933,-0.12655382,24.0,2
0.8551935,-0.37485057,-0.26526126,0.38706166,-0.6582684,-0.42523202,24.0,2
2.0547872,-1.227786,0.6242498,-2.595357,1.2058654,-3.6083112,24.0,2
0.73884296,-0.6450027,-1.0879166,-1.8203958,0.4734031,-2.1376793,24.0,2
0.46159634,-0.36282212,0.02150089,0.91671675,-0.21245892,-1.6925156,24.0,2
0.4386158,-0.7416327,0.44078693,-0.45690975,0.67711794,-1.3948323,24.0,2
0.28376943,-0.85440636,0.20596647,-2.1157753,0.08724901,0.19819959,24.0,2
0.78959334,-1.4755044,-0.088651545,-1.44515,0.00033161257,0.59767056,24.0,2
3.1454945,-1.7210325,-1.3268427,1.5155392,0.5677207,1.4831808,24.0,2
1.5546815,-0.31134295,0.0713156,0.60662407,-1.5316311,2.5412343,24.0,2
0.5101374,0.16464254,0.0129200695,1.684295,-1.7774782,2.9513867,24.0,2
0.18053333,0.1075485,0.26407856,2.3998451,-0.721746,2.4549103,24.0,2
0.13276711,0.090912625,0.14775577,1.186946,-0.021537364,1.6855168,24.0,2
0.619876,-0.17877792,-0.13630573,0.56459653,0.7829372,-0.6184749,24.0,2
0.6719481,-0.7185382,0.32913762,-0.85695666,-2.395063,-1.0868689,24.0,2
1.5069488,-0.61388195,0.28317565,-3.0007272,1.0911624,-3.2525258,24.0,2
1.1296505,-0.52646863,-1.226403,-3.8083434,1.7082933,-2.71568,24.0,2
0.005953901,-0.78078365,-0.22561042,1.5722973,1.7386795,-1.6302596,24.0,2
0.3601253,-0.96634674,0.3636026,-1.2962036,0.9292657,-0.19167206,24.0,2
-0.06554846,-0.87280244,-0.59145975,-2.7722461,-1.4741749,0.79799944,24.0,2
2.1302917,-1.8781822,-0.8972999,0.8774119,-2.1574712,0.7701789,24.0,2
3.1568613,-1.5877992,-0.4340592,0.8493994,1.0369002,1.1593175,24.0,2
0.86357033,0.10423972,-0.4540077,1.8399785,-1.5611621,2.684421,24.0,2
-0.33268198,0.5963133,0.42812538,3.9818988,-0.014852752,2.6304905,24.0,2
0.21098089,0.034689106,0.44201845,0.5251521,-0.13610077,1.7269509,24.0,2
0.17233273,-0.08683674,-0.30602401,0.6743952,0.07340855,0.5786988,24.0,2
0.7039479,-0.34050527,-0.19142601,1.8749374,-0.3622082,-0.45446628,24.0,2
0.08654656,-0.82392436,1.1373502,-1.3647078,-0.4873832,-3.5212715,24.0,2
1.9669621,-0.49389797,-0.2770254,-4.4008126,-1.4061245,-2.9452431,24.0,2
0.33754605,-0.76727843,-1.0501735,-1.605511,1.7316633,-2.3174832,24.0,2
0.4169435,-0.9473425,0.08833264,0.5144009,1.3868037,-1.0349803,24.0,2
0.11199693,-0.8887976,0.10693654,-1.4211693,0.26178193,-0.01558579,24.0,2
0.59099144,-1.4827127,-0.91136914,-0.6860366,-1.0293428,0.73277646,24.0,2
2.9351811,-2.0967717,-1.4959805,4.4295235,0.67846185,0.4660378,24.0,2
1.6302799,-0.775389,-0.16584827,-1.0637608,-0.6826506,1.8716388,24.0,2
0.48058137,0.44650134,-0.4586381,2.234702,-1.717753,2.9093416,24.0,2
-0.011157937,0.23943456,0.7213174,2.556506,-1.1051251,1.1786557,24.0,2
0.4391665,-0.071006276,-0.06917232,0.39760345,0.995082,1.1327361,24.0,2
0.58899945,-0.20584007,-0.25428814,0.48555058,-0.37950438,0.5176123,24.0,2
0.40526557,-0.5072107,-0.07291206,0.91446525,-1.5316486,-0.40634754,24.0,2
1.5431453,-0.5177155,0.48181587,-2.1480117,1.1396825,-2.6183603,24.0,2
-0.07920227,-0.6721436,-0.6527618,0.059829712,0.23860168,0.14259338,20.0,2
-0.00885315,-0.6707077,-0.7458435,-0.019592285,0.39619446,0.43336487,20.0,2
-0.022253418,-0.65252227,-0.7097107,0.10992432,0.84580994,0.4272461,20.0,2
-0.11246338,-0.61997986,-0.8030319,0.16610718,0.70651245,0.4296875,20.0,2
-0.11700897,-0.61567384,-0.8688339,-0.1637268,0.35954285,0.35272217,20.0,2
-0.1076767,-0.616391,-0.8030319,-0.30178833,-0.052139282,0.21588135,20.0,2
-0.085423276,-0.61423796,-0.8822342,0.14657593,0.2923584,0.091278076,20.0,2
-0.11844482,-0.6099304,-0.9375076,0.11968994,0.27279663,0.12182617,20.0,2
-0.058624268,-0.5991623,-0.78173524,0.025619507,0.043136597,0.17190552,20.0,2
-0.05647125,-0.581456,-0.7549362,0.17588806,0.008926392,0.28430176,20.0,2
-0.070588686,-0.5414963,-0.74392855,0.26141357,0.10545349,0.35762024,20.0,2
-0.114616394,-0.52139586,-0.6678375,0.14413452,0.08589172,0.14013672,20.0,2
-0.15146637,-0.5149353,-0.6118454,0.34570312,0.06880188,0.21099854,20.0,2
-0.042352296,-0.4668396,-0.71736753,0.8429413,0.12133789,0.094940186,20.0,2
-0.24717864,-0.5252243,-0.7451248,0.46910095,0.84580994,-0.056533813,20.0,2
-0.25100708,-0.64534456,-0.8262421,0.302948,0.71629333,-0.19335938,20.0,2
-0.2079361,-0.83078766,-1.1892334,0.5765991,-0.16455078,-0.89219666,20.0,2
-0.40079802,-1.1385056,-1.0210174,-0.43373108,-0.2048645,-1.7498474,20.0,2
-0.46133575,-1.3555343,-0.67932284,-1.7702942,-0.87805176,-1.4334106,20.0,2
0.05001068,-1.1418549,-0.5728424,-1.3805695,-0.014282227,-0.06263733,20.0,2
0.31872407,-0.52905273,-0.69344026,0.19787598,-0.3197174,-0.18847656,20.0,2
0.35892335,-0.18233338,-0.7164108,1.1777039,-0.43089294,0.8292084,20.0,2
0.43094787,-0.06197357,-0.42137605,1.3182068,0.090789795,1.2335968,20.0,2
0.15720825,0.08829498,-0.29216307,1.5539856,-0.01550293,0.957489,20.0,2
0.13543396,0.05168457,-0.31489563,1.3194122,0.39619446,0.5482025,20.0,2
-0.15840454,-0.3168091,-0.32494506,-0.10630798,2.2862244,0.42359924,20.0,2
-0.07657013,-0.9800995,-0.419223,0.0011749268,0.6637573,1.3142242,20.0,2
-0.13304138,-1.6711471,-1.1818146,-2.6829376,-1.0747375,-0.08830261,20.0,2
-0.103608705,-1.6833512,-0.694397,-3.3561096,-0.5664978,0.5091095,20.0,2
0.11940155,-1.2818344,-1.0260422,-2.5998535,2.1579285,0.5921936,20.0,2
0.12849426,-0.6357727,-1.127977,-0.04524231,-0.14378357,0.9159546,20.0,2
0.22061768,-0.16869354,-1.4778076,1.9217377,-0.9818878,1.1822662,20.0,2
-0.067956544,0.06197357,-0.7125824,2.5655823,-1.5145569,1.4816132,20.0,2
-0.1138977,0.23736878,-0.05024872,1.8740997,0.2618103,1.5023804,20.0,2
-0.09020996,0.3584442,0.14021912,2.2589417,2.4242706,0.35150146,20.0,2
-0.47808534,0.14021912,-0.16175537,2.24794,3.7669373,-1.2269592,20.0,2
-0.85902405,-0.7264603,-0.4175476,-1.1838684,0.013824463,0.36982727,20.0,2
-0.107437134,-1.6723435,-0.5819351,-2.2590027,0.44996643,-0.5769806,20.0,2
-0.6896118,-1.8470199,-1.3098313,-2.9712524,0.05657959,-1.5800171,20.0,2
-0.034695435,-1.5206391,-1.4323441,-3.1716156,-3.1467896,-1.0412445,20.0,2
-0.13160554,-0.5565704,-1.0167099,1.3096466,0.11277771,-1.2000732,20.0,2
-0.1792221,-0.13519439,-1.0516449,2.5875854,0.35101318,-0.48291016,20.0,2
0.20817566,0.13878326,-0.37040862,2.1990662,-0.23297119,0.15237427,20.0,2
0.1615158,0.29814607,0.020100404,0.12825012,0.0016021729,0.5653076,20.0,2
0.22181396,0.22564392,-0.107437134,-1.0225983,-0.7839508,1.1382904,20.0,2
0.16797638,-0.05934143,-0.34504548,-1.7910614,-3.3691406,-0.22512817,20.0,2
-0.49292144,-0.6032303,-0.6254837,-2.2980957,2.9263916,-2.358261,20.0,2
-0.31537476,-1.2916458,-1.4299514,-2.1087189,3.4553986,-2.9678955,20.0,2
0.2778061,-1.1830108,-2.4892533,-0.71595764,-1.116272,-2.2971802,20.0,2
0.73220366,-1.0181458,-2.1973298,0.35302734,0.69918823,-0.10417175,20.0,2
0.69452345,0.7426095,-0.03549356,-0.31513664,-0.3768864,-0.14053391,14.0,2
0.72059727,0.7329341,0.0999857,-0.55787706,-0.53019613,-0.118176244,14.0,2
0.664457,0.7295209,0.08509855,-0.45354125,-0.27148595,-0.10859439,14.0,2
0.58906937,0.6978686,0.06073132,-0.5291315,-0.5003859,-0.41627848,14.0,2
0.624266,0.7073305,0.06332855,-0.43224823,-0.60472167,-0.48654544,14.0,2
0.6065289,0.68831575,0.022893356,-0.21931808,-0.37582174,-0.71651,14.0,2
0.592472,0.65356725,0.006404011,-0.20228367,-0.16182692,-0.8730137,14.0,2
0.69476956,0.6560371,0.09669415,-0.22996458,0.067073,-0.67924726,14.0,2
0.70393836,0.59919876,0.03144257,0.33642966,0.29810223,-0.5983338,14.0,2
0.83203584,0.5936308,0.07621127,0.40882593,1.1178833,-0.021293016,14.0,2
1.1432351,0.5901755,0.3314667,0.067073,1.0029011,0.33642966,14.0,2
1.705365,0.5770649,0.4034718,-0.68882906,0.12882276,2.3496845,14.0,2
2.4246914,0.5727524,0.44216886,-1.0401639,-0.6153682,3.772058,14.0,2
2.6037135,0.8660517,-0.21745959,-0.37795106,-0.64837235,5.494663,14.0,2
2.4282491,0.951089,-0.074859984,0.7537728,-1.9674747,6.240983,14.0,2
1.3704708,1.0455661,-0.29770273,1.518192,-0.5067738,6.110031,14.0,2
0.61259097,0.9670842,-0.041594945,1.079556,-0.39605013,5.6490374,14.0,2
0.46618366,0.9387789,-0.07070557,1.4042745,0.20760691,5.884325,14.0,2
0.15352388,1.0593855,-0.21743758,1.7140878,1.7343162,3.9935052,14.0,2
-0.47063398,0.8872758,0.012786952,0.5983338,1.4106624,0.72609186,14.0,2
-0.63071984,0.40271622,0.4380652,-1.08275,0.9954485,-3.3962362,14.0,2
-0.08292653,0.2004962,0.37053818,0.5142264,-1.0305821,-5.998243,14.0,2
2.0688996,0.18009952,0.45776653,1.3095205,1.8748502,-3.8146439,14.0,2
2.1478124,0.0055966857,0.74876267,1.9163715,1.6054934,-4.531154,14.0,2
1.8498867,0.06570264,1.1307259,-0.0606851,1.1253359,-3.734795,14.0,2
1.4707639,-0.10991971,1.0503467,-1.619334,0.084107414,-4.2522154,14.0,2
1.2101588,-0.26238057,0.75669605,-1.8886906,-0.38433895,-3.1023924,14.0,2
1.0475006,-0.40032202,-0.009909121,-0.6004631,0.40350267,-1.6959888,14.0,2
0.586997,-0.5408875,-0.13270295,0.5951398,0.74632025,-0.6324026,14.0,2
0.51865876,-0.5223966,-0.24985889,0.6781826,0.6909584,0.11285299,14.0,2
0.5860566,-0.64439845,0.14374596,-0.6143035,0.32578316,0.60259235,14.0,2
1.1450117,-0.60898626,0.6751639,-2.8213248,-1.7076999,1.2594819,14.0,2
1.9995396,-0.5406816,0.80306214,-1.8056479,-2.2283142,3.3078701,14.0,2
3.055596,-0.21809264,0.15895104,0.32152456,-1.6054934,5.098613,14.0,2
2.8109663,-0.123770654,0.59963834,1.0465518,-2.3741713,5.5979342,14.0,2
2.8635707,-0.122453846,1.0221221,0.40989056,-3.0087032,5.8534503,14.0,2
1.7832159,0.08767184,0.761405,1.4351493,-1.686407,5.01557,14.0,2
0.61978984,0.26388985,0.16099188,1.7918074,-0.8027467,3.7379892,14.0,2
0.1906273,0.31291544,0.15833719,0.8144579,-1.2552234,2.4742486,14.0,2
0.09497319,0.38375607,0.028242003,0.17673203,-2.2432194,1.9365999,14.0,2
-0.03491608,0.4858257,-0.2550591,0.66540676,-1.1838918,0.59620446,14.0,2
-0.3167117,0.46468386,-0.18072201,0.17353809,-0.48228684,-0.539778,14.0,2
-0.13338098,0.39887688,0.10915069,0.0042586033,1.4692181,-1.5575842,14.0,2
0.12782834,0.35005146,0.28873783,-0.6749886,1.3457186,-4.2511506,14.0,2
0.39338556,0.30558538,0.84964097,-1.7098292,-0.5227436,-6.775438,14.0,2
1.4436251,0.33426696,1.0884883,-1.5714246,0.91453505,-6.6487446,14.0,2
3.4575527,-0.19977507,1.6273435,-0.1841846,2.2155385,-3.2865772,14.0,2
3.0550551,-0.46724573,0.65757614,-0.15011577,2.878816,-2.5604854,14.0,2
2.1035178,-0.61970943,0.84106386,-1.2392535,2.1314309,-3.1119745,14.0,2
1.8235314,-0.5527972,0.6166247,-1.810971,1.4521837,-2.5019295,14.0,2
0.66714716,0.5894457,-0.1553674,-1.3914987,0.22357668,-0.030874874,20.0,2
0.752217,0.7598698,0.14165342,-2.8458116,-0.42692497,-0.5908812,20.0,2
0.70890015,0.7915662,0.14676839,-3.1183624,-0.5280668,-0.60259235,20.0,2
1.1344925,0.7552787,-0.36121994,-2.2208617,-0.79316485,-0.78358305,20.0,2
1.5073032,0.5178946,-0.3546186,0.10220648,-0.21931808,0.14692181,20.0,2
1.417989,-0.30926478,-0.50808024,-0.58768725,1.0071597,0.47270498,20.0,2
0.71501684,-0.7488498,-0.043603204,-0.6238854,0.46951103,1.3031327,20.0,2
0.8304825,-0.6903336,-1.1162755,2.4486969,-0.4588645,1.8045832,20.0,2
0.5341953,-0.5041403,-0.87946016,4.7824116,0.2512576,2.7851267,20.0,2
0.94695854,-0.5719873,0.30167803,2.4007876,-1.6299804,3.723084,20.0,2
2.4509394,-0.7595538,-2.1064003,4.6440067,-2.5008647,6.229272,20.0,2
4.377227,0.4501377,-2.4220214,4.42043,-0.8602379,6.5997705,20.0,2
1.5050565,1.3855007,0.46985537,2.121849,-0.5802347,2.6445928,20.0,2
-0.15445474,0.8508946,0.016021997,1.1966676,-0.82403976,0.059620447,20.0,2
-0.34112585,0.9889318,0.4299488,-2.043065,-0.44928265,-2.2900639,20.0,2
-0.49841633,1.1762578,0.5451981,-3.2759306,0.6664714,-4.5322185,20.0,2
0.25978047,1.1933793,0.2233359,-3.5516753,0.3204599,-6.5539904,20.0,2
1.3484957,1.5454171,0.30046943,-7.4717197,-1.6544675,-8.56831,20.0,2
6.388865,1.1761707,-1.486331,0.07984881,0.14692181,-1.8918846,20.0,2
1.8725443,-0.70732856,-2.785287,-0.49932125,0.53019613,-0.97522014,20.0,2
0.99490184,-1.1288872,0.33250958,-0.18950784,1.0327113,0.73993236,20.0,2
0.35727426,-0.9052477,-0.32633448,0.42798963,0.6749886,1.1146895,20.0,2
0.12657282,-0.70494205,-0.46772736,3.5410287,0.93156946,1.9185008,20.0,2
0.4084652,-0.49341908,-0.92410725,0.984802,-0.046844635,2.6648211,20.0,2
1.4131852,-1.4932387,-1.002187,3.6730454,-3.4196584,7.7219124,20.0,2
4.314159,-0.7957139,-1.4505261,2.8309066,-1.3733996,6.5273743,20.0,2
2.2237747,1.211603,-0.2539099,4.4012666,-0.33217105,2.4231453,20.0,2
0.37711647,1.2792287,-0.24324708,2.1655,-0.2991669,0.94008666,20.0,2
-0.23107687,1.1086476,1.4732643,-3.1705303,1.0050304,-3.080035,20.0,2
-0.5170192,1.3901675,0.11556429,-2.7042131,2.185728,-5.24447,20.0,2
0.57638013,1.1656095,0.2716624,-6.32722,-1.0018364,-5.385004,20.0,2
1.6680853,1.3724896,0.5113929,-5.2178535,0.63985515,-3.0193498,20.0,2
5.058098,-1.0302997,-3.2089946,-1.9280827,-0.23635249,-1.5352265,20.0,2
1.5075829,-1.1987518,-1.3079581,-1.4809294,0.15011577,-0.6579542,20.0,2
0.26863134,-1.0310342,-1.0261673,0.085172065,1.1455643,0.7708072,20.0,2
0.14286393,-0.9368435,-0.2596052,2.6637564,-0.5376487,1.7385749,20.0,2
0.06643622,-0.48689634,-0.92373765,3.4004948,0.10965904,2.4486969,20.0,2
0.24935131,-0.9042986,-0.048890557,5.6490374,-1.7353809,6.646615,20.0,2
5.016457,-1.4892423,-2.0885053,2.7297647,-2.82026,6.3921638,20.0,2
2.0730531,-0.0628612,-1.0611503,2.586037,-1.6597906,4.195789,20.0,2
0.9391993,0.8496658,0.21232545,2.3017752,-1.6959888,0.7740012,20.0,2
0.025100809,1.0646709,0.14088057,-1.0965904,1.6353037,-1.8556864,20.0,2
-0.3508492,1.1202153,0.8669261,-0.51209706,2.0547762,-4.7334375,20.0,2
-0.110104546,1.0871351,0.49223256,-3.2855124,1.6874716,-6.3996162,20.0,2
1.1636175,1.2327553,0.74566454,-8.799339,1.4745414,-8.937744,20.0,2
3.635468,1.477027,-0.15918568,-2.9576,0.8900481,-3.2578316,20.0,2
3.544476,-0.90653193,-2.3776357,0.9549918,1.0784913,-2.502994,20.0,2
1.3596394,-0.94560826,-1.1407548,0.5866226,-0.2725506,-1.0508103,20.0,2
0.6038129,-1.0283853,-0.8439666,2.2634478,0.7771951,0.66327745,20.0,2
0.4718186,-0.9069389,-0.3939046,3.6847565,1.2243484,2.9245958,20.0,2
0.122789994,-0.5858487,0.17629656,2.1892712,0.4770683,-0.2830924,17.0,2
-0.07120068,-0.6674977,0.35010698,2.84548,1.7719281,-0.26686084,17.0,2
0.14335042,-1.2572854,0.6166717,-0.551175,0.5002986,0.11250392,17.0,2
0.10142318,-1.7444298,1.2239101,-0.22769566,1.3688443,-0.36847392,17.0,2
0.34932265,-1.1935785,1.2443193,0.10053097,0.8356462,-0.84219116,17.0,2
0.96029806,-0.6920507,0.7269476,0.75366807,0.9062971,-1.1944336,17.0,2
-0.13292703,0.1515386,0.053462524,-1.5597833,0.5922077,-1.9545593,17.0,2
0.15955248,0.27747935,-0.19444366,0.454571,-1.4351493,-0.85213953,17.0,2
-0.21910104,-0.4699684,0.20462763,0.6132214,-2.8338737,1.3995969,17.0,2
-0.09701784,-1.2533886,-0.0507542,-0.7191455,-2.4149249,2.1060889,17.0,2
0.9706381,-2.6596353,-0.40540823,-0.003106686,-2.8934767,2.356177,17.0,2
0.80693215,-2.802004,1.3411782,-2.0814447,-2.416513,2.6704235,17.0,2
0.9653163,-1.1531692,0.312586,-0.8136376,-1.9966043,1.5857538,17.0,2
0.63505435,-0.19991586,0.40584117,-2.3429997,-1.7561678,1.0729761,17.0,2
0.27021918,0.1153421,0.25958508,0.1674818,-0.55162877,0.012287118,17.0,2
0.40316343,-0.3415951,0.5762843,2.001788,-0.05703736,-2.9113662,17.0,2
0.23359556,-0.5775877,0.8847513,3.4121187,2.1689556,-1.2966051,17.0,2
0.065406725,-0.8385538,0.9796902,-1.9091109,1.938415,-3.1624842,17.0,2
-0.03903315,-1.1148705,1.0393881,2.3269253,2.9231646,-0.20106193,17.0,2
0.21767506,-1.1860445,1.4840755,0.5367237,2.5728598,-0.97227055,17.0,2
0.7108327,-0.24742734,0.54866296,1.2306665,2.3477645,-0.56679565,17.0,2
-0.022335028,-0.34189966,-0.14090356,0.91959655,0.5717524,-2.1128082,17.0,2
0.12828515,-0.5056353,0.33105582,0.47401398,-2.0404296,-0.38042942,17.0,2
0.22418252,-0.7731413,-0.11088506,-0.33985052,-2.928331,1.9060217,17.0,2
1.4252232,-2.4050303,0.23716101,-0.9769306,-2.1353579,4.8891735,17.0,2
1.3576838,-2.5772834,0.74026513,-2.9341602,-1.0825753,3.5472596,17.0,2
0.7880927,-1.639937,1.0376289,-2.4649634,0.3171787,3.9630494,17.0,2
0.5996106,-0.41480595,0.6877564,-2.7604651,1.1825478,2.1704915,17.0,2
0.1739943,-0.087902635,0.72231823,-1.8782187,-0.024923302,-0.23638739,17.0,2
0.48202848,-0.045486,0.6047543,2.2384894,-0.45369834,-2.176443,17.0,2
0.04097437,-0.30147403,0.9062149,4.17954,-0.6107256,-4.1969233,17.0,2
0.104973294,-0.61997086,0.31160057,0.78812087,-0.45867252,-3.935316,17.0,2
-0.6387184,-0.64804333,0.08664999,2.5222278,2.260725,-0.23122121,17.0,2
0.8214966,-1.0898454,1.3821545,-0.956423,2.1707706,-2.0213704,17.0,2
1.2542036,-0.93535817,0.68609583,1.320743,2.3149,-0.7071725,17.0,2
-0.9389408,-0.80464524,0.96377534,0.96087354,0.5060059,-2.3059115,17.0,2
0.7450727,-0.37219113,-0.038985267,0.5396209,-2.055003,-0.7618537,17.0,2
0.27830583,-0.67369103,0.13205363,-0.46938884,-2.267235,0.48321185,17.0,2
0.6733577,-1.6952385,-0.55313146,-1.3287541,-2.3115664,3.0163827,17.0,2
2.0952454,-2.8708682,0.09660987,-1.0117325,-1.9000702,4.640918,17.0,2
0.64164317,-2.0109465,1.0169199,-1.8656697,-1.0181727,3.9974673,17.0,2
0.7372312,-0.710917,-0.043707587,-1.7070717,-0.3864857,2.443391,17.0,2
0.29106215,-0.08436113,0.8200428,0.19863592,0.6150715,1.2372988,17.0,2
0.2917076,-0.043996807,0.5533441,0.18245672,-0.17217673,-1.9882616,17.0,2
-0.013387417,-0.29657456,0.83639514,4.169609,-0.2761111,-3.874631,17.0,2
-0.24826244,-0.89669263,0.50548685,-0.098750725,-0.22087142,-4.0385175,17.0,2
-0.27995113,-0.66568285,0.14409646,1.4265623,2.0272,-0.5339137,17.0,2
1.120924,-1.0578742,1.1150181,0.29147,1.3896137,-1.5269188,17.0,2
0.6015394,-0.88931096,1.6096592,0.7891855,1.8317056,-1.4776655,17.0,2
0.25315428,-0.39745855,-0.06645921,0.6749886,1.813397,-2.3519533,17.0,2
0.24746661,-0.77903014,0.14036918,0.20586158,0.6977652,0.43456954,19.0,2
0.20944858,-0.6683041,0.31942004,-0.32761574,0.13412856,-0.1691224,19.0,2
-0.18603714,-0.66880685,0.40124044,-0.24736552,-0.075031705,-0.10604621,19.0,2
0.21552984,-1.3376213,0.3080964,1.7682105,0.3640757,0.0874759,19.0,2
0.8263338,-1.6518519,0.58695006,3.0975406,1.3815851,0.11782718,19.0,2
0.39724308,-1.4697602,1.2711334,-0.69434434,0.7653967,-1.061422,19.0,2
0.5301749,-0.654976,0.55396944,0.6832964,1.7158681,0.6889687,19.0,2
-0.03631142,0.16696301,-0.20450409,0.14475761,1.3801017,-1.4690611,19.0,2
0.0147856325,0.20060058,0.15345779,0.1555961,0.86255914,-1.0855948,19.0,2
0.13228539,-0.537096,-0.057554692,0.038781215,-0.05893977,0.102712624,19.0,2
0.31287235,-1.1798031,0.05744552,0.31679472,-1.3116324,0.46460664,19.0,2
1.1073124,-1.8800488,-0.07226084,2.1699853,-2.1634753,1.0904818,19.0,2
1.0191591,-2.4526374,1.3690284,-1.6459153,-2.268928,1.3373586,19.0,2
0.92708665,-1.4050909,0.8165156,-0.48900634,-1.3176538,3.0916588,19.0,2
0.52493256,-0.49098372,0.7925219,-1.8307282,-0.53944635,2.530291,19.0,2
-0.19505273,-0.05692167,0.47656393,-1.7129709,0.23165755,1.6447634,19.0,2
0.40656036,-0.040879555,0.7400468,-2.0840802,0.029670598,0.7914021,19.0,2
-0.23655574,-0.4490239,0.44653684,-0.93994707,0.2778564,0.6402915,19.0,2
-0.2301077,-1.0336229,0.7489983,0.268484,-0.4076042,-1.2043121,19.0,2
-0.12213685,-1.1735764,-0.19794014,2.4233198,-0.66804224,-1.8949388,19.0,2
0.75763744,-0.9816543,0.93872434,3.2341824,1.642861,-1.2234409,19.0,2
-0.59479916,-0.66302145,1.1308244,-0.16104153,0.061994094,-2.588847,19.0,2
1.0464892,-0.22467189,0.17338714,3.0010412,1.2439834,-0.7177492,19.0,2
-0.07166037,-0.4880293,0.39123458,0.6288596,1.2134227,-1.1184593,19.0,2
0.13330054,-0.57223624,0.083324924,0.69451886,0.97129315,-1.381463,19.0,2
0.36297342,-0.87042826,0.29909423,0.2531251,-0.13233086,-0.45732862,19.0,2
0.45841208,-1.8349661,0.07745338,0.99443626,-1.3046685,0.20687388,19.0,2
1.7885854,-2.930593,1.5897748,-1.6745212,-1.7413324,1.8869802,19.0,2
0.64733374,-1.799979,0.6338524,-2.1577156,-2.5334675,1.1768581,19.0,2
0.6275298,-0.79173094,0.27498075,-0.8722981,-2.4724858,3.237865,19.0,2
0.9388115,-0.14319435,0.33095625,-0.42940336,-1.199303,3.7977316,19.0,2
5.5545483e-05,-0.043085095,0.4836517,-1.4130709,0.15063937,2.435764,19.0,2
0.30027312,-0.30009785,0.8810154,-2.1551325,-0.05311037,0.7922224,19.0,2
0.07023822,-0.23514894,0.3525462,0.0029146997,-0.26637214,-0.8951794,19.0,2
-0.18985063,-0.98143786,0.26178584,1.2437565,0.3275983,-2.202309,19.0,2
0.08850789,-1.3040835,0.56111085,2.9550169,0.92039937,-2.0803277,19.0,2
0.65067893,-1.0352376,1.244055,2.0458748,1.0591007,-2.6290069,19.0,2
0.5058134,-0.6989527,0.96545994,1.4925183,2.1195104,-1.087375,19.0,2
-0.04500716,-0.48402804,0.07510898,0.15810938,2.5506241,-1.5117519,19.0,2
0.2845643,-0.5086788,0.48923117,-0.0564614,3.3411362,-1.3610077,19.0,2
0.34510022,-0.6082048,0.11586404,-0.7741233,2.6718895,-0.94794065,19.0,2
0.43272036,-0.97035456,-0.017751569,0.17512634,-1.6941562,-1.6280082,19.0,2
1.1972387,-2.5938199,-0.18509573,0.29731685,-2.7642875,0.24171065,19.0,2
0.5517486,-2.3751228,0.8542042,-0.54147094,-2.699431,1.8971031,19.0,2
0.8848386,-1.442811,0.5131071,-1.9182913,-2.584693,3.1832886,19.0,2
0.38720468,-0.35874528,0.9858633,-1.2552059,-0.73804736,3.2111266,19.0,2
0.0015322891,-0.24711418,0.47155142,-2.9739015,0.036390115,1.6099615,19.0,2
0.20628059,-0.16338608,0.6981416,-2.2251203,0.54288465,2.472189,19.0,2
0.17140569,-0.116597615,0.16972688,-1.3598034,-0.43373176,-1.1208155,19.0,2
0.15161523,-1.2894988,1.2015148,0.123761296,-0.053930674,0.66994464,19.0,2
0.7748501,-0.4150111,-0.52147,0.20721297,0.5651033,-0.1606345,22.0,2
0.68291664,-0.3987313,-0.48220682,-0.06694314,0.612262,-0.279631,22.0,2
0.68950045,-0.42027816,-0.36968416,-0.21257327,0.6188594,-0.39936048,22.0,2
0.7926861,-0.46193546,-0.31294402,-0.17836484,0.5018177,-0.5875068,22.0,2
0.8387726,-0.48276415,-0.2952277,-0.053015426,0.41800714,-0.3917857,22.0,2
0.72684836,-0.46768132,-0.26302704,-0.17201187,0.07176898,-0.2691241,22.0,2
0.8263232,-0.4705542,-0.32706922,-0.2409174,-0.20874012,-0.25568506,22.0,2
0.80836743,-0.46145663,-0.31653517,-0.89845216,-0.58478844,-1.4571339,22.0,2
0.70733654,-0.41070175,-0.23824815,-2.7962866,-1.4338905,-2.8032355,22.0,2
0.73103803,-0.39813274,-0.24351516,-1.8482245,-1.7173315,-1.1284885,22.0,2
0.6516737,-0.36832622,-0.27559608,-0.5426846,1.5879353,-1.1551222,22.0,2
0.6825575,-0.38340902,-0.2789478,-0.7371839,2.4265304,-1.1074748,22.0,2
0.5334052,-0.3558769,-0.20353372,-1.7394906,1.9955043,-1.8058153,22.0,2
0.43740186,-0.3168531,-0.15732762,-0.97981936,0.89374846,-2.4154584,22.0,2
0.4217205,-0.2807022,-0.16774194,0.28858012,-0.33799908,-1.0881715,22.0,2
0.6346756,-0.1376548,-0.19431643,1.3529508,0.32149047,-0.2139019,22.0,2
0.94052184,-0.036384415,-0.22400327,1.4927167,0.6408505,1.3237667,22.0,2
2.9978905,0.3035776,-0.67792434,0.83102804,1.4205583,1.8500878,22.0,2
2.799659,0.41645938,-1.0412289,-0.18618393,-0.1400789,3.2865973,22.0,2
2.230103,0.28574157,-0.8653823,-0.3403662,-0.6729973,3.8744936,22.0,2
1.5486228,0.24635863,-0.9180525,-2.0080268,-0.68130505,4.54449,22.0,2
1.3246548,-0.12915573,-0.6926481,-1.0963722,-0.7736679,4.5537753,22.0,2
0.97320116,-0.1744042,-0.56743675,1.5208166,-1.6169055,3.7909272,22.0,2
0.14556119,-0.16782042,-0.61328375,2.018549,-2.6314297,4.1300793,22.0,2
0.4000539,-0.2422769,-0.7854194,2.1140883,-2.2793272,3.1646686,22.0,2
0.5861951,-0.35958773,-0.7432833,2.117998,-2.93564,2.327784,22.0,2
0.22384822,-0.43883237,-0.37207827,4.4387946,0.0060399417,1.1967069,22.0,2
0.10474183,-0.5673955,-0.24291663,2.8380852,1.4696718,2.3629699,22.0,2
0.22875614,-0.6709403,-0.11172004,-0.64017856,-0.7076945,2.0646234,22.0,2
0.10869209,-0.6655535,0.05000134,-2.5995882,-0.19725585,-2.4958484,22.0,2
0.3184151,-0.7309125,-0.14715269,-3.5635326,0.81726825,-5.0055246,22.0,2
1.9564575,-0.8002216,-0.20090023,-2.054208,3.5277972,-7.0311527,22.0,2
2.7248435,-0.611447,-0.7098856,-1.8059528,4.6412816,-5.678698,22.0,2
